----------------------------969969099448951372522494
Content-Disposition: form-data; name="file"; filename="RawData.csv"
Content-Type: text/csv

"Time (s)","Linear Acceleration x (m/s^2)","Linear Acceleration y (m/s^2)","Linear Acceleration z (m/s^2)","Absolute acceleration (m/s^2)"
1.001801320E-1,2.782230079E-1,1.748399995E-2,5.480099842E-2,2.841071661E-1
1.051930550E-1,2.866080105E-1,5.293799937E-2,4.255000129E-2,2.945455586E-1
1.102057470E-1,2.860850096E-1,6.601700187E-2,-1.179299969E-2,2.938400110E-1
1.152186550E-1,3.405140042E-1,9.320499748E-2,-5.264100060E-2,3.569426194E-1
1.202315780E-1,3.949899971E-1,5.233699828E-2,-7.987999916E-2,4.063706110E-1
1.252445010E-1,4.630909860E-1,-2.143000020E-3,-9.350100160E-2,4.724407805E-1
1.302573470E-1,5.448129773E-1,-7.024499774E-2,-9.350100160E-2,5.572234536E-1
1.352700690E-1,3.813059926E-1,1.403090060E-1,-9.851299971E-2,4.180737833E-1
1.402829920E-1,1.864459962E-1,3.971959949E-1,-5.179699883E-2,4.418254145E-1
1.452959340E-1,2.677440047E-1,3.835609853E-1,9.452400357E-2,4.772218235E-1
1.503087800E-1,3.330799937E-1,3.318040073E-1,2.712459862E-1,5.427804036E-1
1.553214190E-1,3.872840106E-1,2.639740109E-1,4.346570075E-1,6.392166280E-1
1.603342660E-1,3.181940019E-1,3.311899900E-1,5.286129713E-1,7.002613125E-1
1.653472130E-1,2.490019947E-1,3.988679945E-1,5.982139707E-1,7.608926502E-1
1.703601360E-1,3.006210029E-1,3.615550101E-1,7.060030103E-1,8.482542444E-1
1.753730640E-1,3.519490063E-1,3.510990143E-1,7.739059925E-1,9.198201488E-1
1.803856790E-1,3.908179998E-1,3.384130001E-1,8.148090243E-1,9.649745146E-1
1.853986640E-1,3.887769878E-1,3.110040128E-1,8.422709703E-1,9.784127093E-1
1.904115100E-1,4.273799956E-1,2.826060057E-1,8.699089885E-1,1.009584797E0
1.954244520E-1,4.113509953E-1,2.802959979E-1,8.568819761E-1,9.909703370E-1
2.004371450E-1,3.952549994E-1,2.768819928E-1,8.576570153E-1,9.841065534E-1
2.054500780E-1,3.656890094E-1,2.862460017E-1,8.040710092E-1,9.285447824E-1
2.104629240E-1,3.362559974E-1,2.811560035E-1,7.778480053E-1,8.928405868E-1
2.154758420E-1,2.934570014E-1,2.752999961E-1,7.517259717E-1,8.526423846E-1
2.204885340E-1,2.375019938E-1,2.686350048E-1,7.256919742E-1,8.094447506E-1
2.255014480E-1,1.685030013E-1,2.886280119E-1,6.860809922E-1,7.631556320E-1
2.305142940E-1,1.139750034E-1,3.351730108E-1,6.601240039E-1,7.490627137E-1
2.355272370E-1,4.700500146E-2,3.539730012E-1,6.205229759E-1,7.159295492E-1
2.405399290E-1,-3.250399977E-2,3.450570107E-1,5.672810078E-1,6.647770998E-1
2.455531160E-1,-7.029200345E-2,3.494429886E-1,5.276370049E-1,6.367512677E-1
2.505658080E-1,-1.209279969E-1,3.394269943E-1,5.152999759E-1,6.287832139E-1
2.555786640E-1,-2.117509991E-1,3.557130098E-1,5.303090215E-1,6.727539589E-1
2.605915880E-1,-2.923420072E-1,3.529939950E-1,5.190610290E-1,6.924543028E-1
2.656042700E-1,-1.128989980E-1,2.428199947E-1,5.031179786E-1,5.699433603E-1
2.706171930E-1,-1.766269952E-1,2.391459942E-1,4.252560139E-1,5.188743386E-1
2.756300390E-1,-1.952279955E-1,2.082310021E-1,4.008159935E-1,4.920646107E-1
2.806429620E-1,-2.158730030E-1,2.320519984E-1,2.947680056E-1,4.328249768E-1
2.856556500E-1,-3.187820017E-1,2.691670060E-1,2.024729997E-1,4.637544149E-1
2.906685730E-1,-4.219970107E-1,3.462840021E-1,1.104030013E-1,5.569406699E-1
2.956814050E-1,-4.985710084E-1,4.227690101E-1,-8.704000153E-3,6.537449395E-1
3.006943280E-1,-5.759350061E-1,5.394179821E-1,-1.684439927E-1,8.068743827E-1
3.057070150E-1,-6.269400120E-1,6.561179757E-1,-3.144800067E-1,9.604385724E-1
3.107199380E-1,-7.056180239E-1,7.454180121E-1,-4.740360081E-1,1.130599374E0
3.157328220E-1,-7.572489977E-1,8.078169823E-1,-6.608489752E-1,1.289463334E0
3.207458220E-1,-8.087729812E-1,8.571540117E-1,-8.749870062E-1,1.467797328E0
3.257586550E-1,-9.148480296E-1,8.807860017E-1,-1.089409947E0,1.673184070E0
3.307713470E-1,-1.062013030E0,8.923649788E-1,-1.304123998E0,1.903923930E0
3.357842700E-1,-1.168637991E0,9.200310111E-1,-1.505707979E0,2.116442377E0
3.407971160E-1,-1.234797955E0,9.779660106E-1,-1.653429985E0,2.283631805E0
3.458100530E-1,-1.301509976E0,9.992079735E-1,-1.720299959E0,2.377346576E0
3.508227460E-1,-1.341452956E0,9.296849966E-1,-1.706419945E0,2.361287626E0
3.558356690E-1,-1.272765040E0,7.426959872E-1,-1.557438016E0,2.144094529E0
3.608485150E-1,-1.122815967E0,5.201830268E-1,-1.341488004E0,1.825074284E0
3.658614530E-1,-8.234810233E-1,2.618120015E-1,-9.631440043E-1,1.293952431E0
3.708743760E-1,-5.110020041E-1,4.893900082E-2,-4.767810106E-1,7.005984628E-1
3.758870910E-1,-1.715629995E-1,-1.330280006E-1,9.058099985E-2,2.352344134E-1
3.809000140E-1,1.268669963E-1,-2.575190067E-1,6.982420087E-1,7.549524331E-1
3.859128610E-1,4.387120008E-1,-3.399280012E-1,1.264871955E0,1.381274892E0
3.909257740E-1,6.544250250E-1,-4.490729868E-1,1.777040005E0,1.946229647E0
3.959386970E-1,8.278700113E-1,-5.453720093E-1,2.221421957E0,2.432594273E0
4.009513660E-1,9.449769855E-1,-6.309720278E-1,2.530358076E0,2.773773458E0
4.059642120E-1,1.032788992E0,-6.518520117E-1,2.703933001E0,2.966954300E0
4.109771210E-1,1.064329982E0,-6.634600163E-1,2.742300034E0,3.015491167E0
4.159898140E-1,1.148885965E0,-6.931639910E-1,2.631829023E0,2.954139348E0
4.210027370E-1,1.218888044E0,-7.141140103E-1,2.372549057E0,2.761274328E0
4.260155920E-1,1.288064003E0,-7.119299769E-1,2.059643030E0,2.531419084E0
4.310285150E-1,1.411425948E0,-6.996260285E-1,1.692963004E0,2.312514545E0
4.360411880E-1,1.494222999E0,-6.628040075E-1,1.299564004E0,2.088271563E0
4.410543420E-1,1.537381053E0,-6.143739820E-1,9.337300062E-1,1.900749225E0
4.460670350E-1,1.486667991E0,-5.674600005E-1,6.089680195E-1,1.703829397E0
4.510799680E-1,1.369979024E0,-5.081279874E-1,3.251709938E-1,1.496921091E0
4.560928140E-1,1.214795947E0,-4.498139918E-1,6.866499782E-2,1.297218834E0
4.611055200E-1,1.062284946E0,-3.647769988E-1,-1.742900014E-1,1.136612762E0
4.661184430E-1,8.982480168E-1,-2.664130032E-1,-4.173209965E-1,1.025661836E0
4.711313660E-1,7.220680118E-1,-1.950899959E-1,-6.741039753E-1,1.006905403E0
4.761442120E-1,5.738689899E-1,-1.504320055E-1,-8.493199944E-1,1.036001862E0
4.811569000E-1,4.530229867E-1,-7.742000371E-2,-9.838969707E-1,1.085945179E0
4.861698230E-1,3.313969970E-1,-4.428000003E-2,-1.118610024E0,1.167507205E0
4.911827460E-1,1.126879975E-1,-1.192009971E-1,-1.130794048E0,1.142629705E0
4.961956020E-1,-1.215950027E-1,-1.526300013E-1,-1.034006000E0,1.052259316E0
5.012085250E-1,-2.893739939E-1,-1.446020007E-1,-9.780820012E-1,1.030190006E0
5.062214480E-1,-3.768129945E-1,-4.075700045E-2,-9.630150199E-1,1.034914052E0
5.112341460E-1,-4.790790081E-1,-4.182999954E-3,-8.935430050E-1,1.013880316E0
5.162470690E-1,-5.956140161E-1,-7.602999918E-3,-7.697150111E-1,9.732805660E-1
5.212599000E-1,-7.802630067E-1,1.730800048E-2,-6.597239971E-1,1.021932326E0
5.262728230E-1,-9.921789765E-1,4.354500026E-2,-5.499969721E-1,1.135258542E0
5.312855250E-1,-1.217373967E0,7.173699886E-2,-3.998300135E-1,1.283358723E0
5.362984480E-1,-1.360496998E0,1.158519983E-1,-1.820549965E-1,1.377504188E0
5.413112950E-1,-1.543910980E0,9.413299710E-2,6.245699897E-2,1.548038440E0
5.463242180E-1,-1.713598013E0,-7.000999991E-3,3.473590016E-1,1.748463737E0
5.513369190E-1,-1.787873030E0,-1.334349960E-1,6.999750137E-1,1.924645393E0
5.563498420E-1,-1.753003955E0,-2.857159972E-1,1.025068998E0,2.050712790E0
5.613626740E-1,-1.703966022E0,-4.649569988E-1,1.336459041E0,2.214905863E0
5.663755970E-1,-1.668037057E0,-6.580529809E-1,1.634253025E0,2.426141855E0
5.713882900E-1,-1.617465019E0,-8.113780022E-1,1.918576956E0,2.637321536E0
5.764014670E-1,-1.606544018E0,-8.981040120E-1,2.094152927E0,2.788019186E0
5.814141600E-1,-1.580721974E0,-9.596830010E-1,2.147461891E0,2.833948835E0
5.864270250E-1,-1.622163057E0,-1.064216018E0,2.160259008E0,2.903564654E0
5.914399480E-1,-1.717298031E0,-1.184546947E0,2.132560968E0,2.983300233E0
5.964526550E-1,-1.757261038E0,-1.266299963E0,2.050772905E0,2.982809324E0
6.014655780E-1,-1.742159963E0,-1.323129058E0,1.914911032E0,2.907348637E0
6.064784250E-1,-1.699555039E0,-1.409453034E0,1.765853047E0,2.827239320E0
6.114913330E-1,-1.670408964E0,-1.470662951E0,1.617205024E0,2.751084825E0
6.165040250E-1,-1.613852978E0,-1.493052959E0,1.428089976E0,2.621673045E0
6.215168900E-1,-1.543805957E0,-1.503530025E0,1.212095022E0,2.472471175E0
6.265298900E-1,-1.501113057E0,-1.502025962E0,9.692090154E-1,2.334264020E0
6.315427260E-1,-1.499523997E0,-1.529091001E0,6.857659817E-1,2.248769994E0
6.365556490E-1,-1.457437038E0,-1.516270995E0,3.889490068E-1,2.138803820E0
6.415683320E-1,-1.402354956E0,-1.503610969E0,1.194780022E-1,2.059543726E0
6.465812550E-1,-1.361351013E0,-1.491024017E0,-1.635390073E-1,2.025629336E0
6.515941630E-1,-1.307083011E0,-1.477954984E0,-3.921250105E-1,2.011611035E0
6.566070090E-1,-1.266674995E0,-1.464247942E0,-5.527030230E-1,2.013446848E0
6.616199230E-1,-1.198935032E0,-1.421990037E0,-6.863030195E-1,1.982552070E0
6.666326150E-1,-1.117087007E0,-1.378569007E0,-7.793120146E-1,1.937953328E0
6.716454390E-1,-1.089043021E0,-1.347298980E0,-8.999149799E-1,1.952197791E0
6.766583620E-1,-1.060475945E0,-1.341683984E0,-9.936490059E-1,1.977893700E0
6.816712510E-1,-1.017969012E0,-1.375053048E0,-1.019701958E0,1.991688700E0
6.866839430E-1,-9.886739850E-1,-1.406802058E0,-1.005270958E0,1.991767551E0
6.916968180E-1,-9.590709805E-1,-1.423375010E0,-9.775760174E-1,1.975213517E0
6.967098180E-1,-8.883090019E-1,-1.438665032E0,-9.093199968E-1,1.919821037E0
7.017226600E-1,-8.173919916E-1,-1.425608039E0,-8.549339771E-1,1.852403858E0
7.067355830E-1,-7.736409903E-1,-1.398069024E0,-8.552200198E-1,1.812324105E0
7.117485060E-1,-7.572950125E-1,-1.383105993E0,-8.420979977E-1,1.787626069E0
7.167611980E-1,-7.548149824E-1,-1.380718946E0,-8.291829824E-1,1.778672225E0
7.217740290E-1,-7.524499893E-1,-1.363520980E0,-8.573729992E-1,1.777767957E0
7.267869520E-1,-7.229440212E-1,-1.344665051E0,-8.859120011E-1,1.765109693E0
7.317996550E-1,-7.073659897E-1,-1.296694040E0,-9.012029767E-1,1.730303119E0
7.368125780E-1,-7.057579756E-1,-1.260373950E0,-8.079199791E-1,1.655104681E0
7.418254190E-1,-6.906759739E-1,-1.235905051E0,-6.741290092E-1,1.568102203E0
7.468383420E-1,-6.754729748E-1,-1.223368049E0,-4.998289943E-1,1.484157049E0
7.518510440E-1,-6.737080216E-1,-1.250437975E0,-2.713060081E-1,1.446058290E0
7.568639670E-1,-6.305940151E-1,-1.235617042E0,-5.663200095E-2,1.388382321E0
7.618768130E-1,-5.459780097E-1,-1.206781983E0,1.034559980E-1,1.328577392E0
7.668898140E-1,-4.746550024E-1,-1.204592943E0,2.770459950E-1,1.324045322E0
7.719026600E-1,-4.304060042E-1,-1.215787053E0,4.369849861E-1,1.361742768E0
7.769153660E-1,-4.133220017E-1,-1.226812959E0,5.832930207E-1,1.419906990E0
7.819282890E-1,-3.691619933E-1,-1.211153030E0,7.161319852E-1,1.454653657E0
7.869411980E-1,-3.524630070E-1,-1.168723941E0,8.218669891E-1,1.471601566E0
7.919540440E-1,-3.497279882E-1,-1.127290964E0,9.278489947E-1,1.501332189E0
7.969669720E-1,-3.608070016E-1,-1.086856961E0,9.659579992E-1,1.498170419E0
8.019796650E-1,-3.585009873E-1,-1.007212043E0,1.018041968E0,1.476281987E0
8.069925110E-1,-3.563460112E-1,-9.152399898E-1,1.029538989E0,1.422883428E0
8.120054480E-1,-3.543460071E-1,-8.658120036E-1,9.868980050E-1,1.359837928E0
8.170183710E-1,-3.661589921E-1,-7.907779813E-1,8.764879704E-1,1.235974670E0
8.220310870E-1,-3.917430043E-1,-7.447389960E-1,7.391849756E-1,1.120041598E0
8.270439340E-1,-4.174579978E-1,-6.727219820E-1,5.476520061E-1,9.626779133E-1
8.320569430E-1,-4.161120057E-1,-5.881119967E-1,3.699479997E-1,8.098681648E-1
8.370695580E-1,-4.010489881E-1,-4.904380143E-1,1.651010066E-1,6.546969368E-1
8.420827410E-1,-3.858560026E-1,-3.928520083E-1,-2.611500025E-2,5.512708485E-1
8.470954330E-1,-3.705190122E-1,-3.085710108E-1,-2.037799954E-1,5.234755903E-1
8.521083940E-1,-3.416970074E-1,-2.919270098E-1,-3.679029942E-1,5.808018914E-1
8.571212400E-1,-3.538379967E-1,-2.336370051E-1,-4.913020134E-1,6.489724543E-1
8.621341590E-1,-3.526139855E-1,-1.880940050E-1,-5.603629947E-1,6.882751363E-1
8.671468510E-1,-3.517299891E-1,-1.417060047E-1,-5.750749707E-1,6.888438132E-1
8.721597610E-1,-3.647220135E-1,-1.219400018E-1,-5.762599707E-1,6.927965538E-1
8.771726070E-1,-3.368879855E-1,-8.793000132E-2,-5.094519854E-1,6.170628212E-1
8.821855430E-1,-2.953560054E-1,-5.353400111E-2,-4.563350081E-1,5.462075603E-1
8.871982350E-1,-2.808560133E-1,-1.873300038E-2,-3.896819949E-1,4.807110178E-1
8.922111640E-1,-2.797890007E-1,2.879000036E-3,-3.639729917E-1,4.590931412E-1
8.972240870E-1,-3.057770133E-1,2.500900067E-2,-2.975049913E-1,4.273572883E-1
9.022370140E-1,-3.453249931E-1,2.009299956E-2,-2.310670018E-1,4.159868253E-1
9.072498600E-1,-3.985219896E-1,1.871000044E-3,-1.510549933E-1,4.261934864E-1
9.122627740E-1,-4.245269895E-1,-2.665000036E-3,-8.466300368E-2,4.328950117E-1
9.172754660E-1,-4.371359944E-1,6.359000225E-3,-1.823600009E-2,4.375624141E-1
9.222883610E-1,-4.501560032E-1,2.852199972E-2,6.193200126E-2,4.552905715E-1
9.273012080E-1,-4.907250106E-1,3.662899882E-2,1.285859942E-1,5.086128956E-1
9.323141310E-1,-5.452489853E-1,3.055799939E-2,1.545059979E-1,5.675406159E-1
9.373268230E-1,-5.727800131E-1,3.761199862E-2,1.805360019E-1,6.017348700E-1
9.423396690E-1,-5.732129812E-1,9.852399677E-2,2.066880018E-1,6.172519987E-1
9.473525920E-1,-5.600839853E-1,1.454859972E-1,2.329059988E-1,6.237831757E-1
9.523655240E-1,-5.468170047E-1,1.649709940E-1,2.455389947E-1,6.217022305E-1
9.573782170E-1,-5.468329787E-1,1.572320014E-1,2.445289940E-1,6.193081929E-1
9.623913760E-1,-5.600079894E-1,1.494980007E-1,2.843520045E-1,6.456118516E-1
9.674039910E-1,-5.181310177E-1,1.691319942E-1,3.241179883E-1,6.341276317E-1
9.724169620E-1,-5.030320287E-1,1.615539938E-1,3.502320051E-1,6.338796196E-1
9.774298080E-1,-5.420730114E-1,1.403339952E-1,4.035710096E-1,6.902219496E-1
9.824427020E-1,-5.398910046E-1,1.326269954E-1,4.432879984E-1,7.110390048E-1
9.874553940E-1,-5.644099712E-1,1.387020051E-1,4.829449952E-1,7.556670763E-1
9.924683180E-1,-5.750920177E-1,1.039519981E-1,5.225870013E-1,7.839859824E-1
9.974811640E-1,-5.992190242E-1,6.914299726E-2,5.349919796E-1,8.062633635E-1
1.002493842E0,-6.370859742E-1,3.395000100E-2,5.747140050E-1,8.586776628E-1
1.007506765E0,-6.613540053E-1,1.196299959E-2,6.281300187E-1,9.121839475E-1
1.012519669E0,-6.585379839E-1,-1.044800039E-2,6.407690048E-1,9.188940932E-1
1.017532515E0,-6.694329977E-1,7.666999940E-3,6.262320280E-1,9.167147180E-1
1.022545414E0,-6.533390284E-1,-2.022000030E-3,6.390470266E-1,9.139130575E-1
1.027558107E0,-6.376140118E-1,-1.220100001E-2,6.655880213E-1,9.217960222E-1
1.032571030E0,-6.086170077E-1,-2.280599996E-2,6.649820209E-1,9.017404637E-1
1.037583953E0,-5.938630104E-1,-6.525999866E-3,6.644759774E-1,8.912037861E-1
1.042596784E0,-5.661439896E-1,2.288999967E-2,6.777120233E-1,8.833666031E-1
1.047609707E0,-5.389930010E-1,5.176300183E-2,6.910730004E-1,8.779377856E-1
1.052622396E0,-4.986909926E-1,1.071970016E-1,6.909540296E-1,8.588372222E-1
1.057635319E0,-4.587059915E-1,1.345189959E-1,6.501359940E-1,8.069593283E-1
1.062648155E0,-4.597280025E-1,1.610600054E-1,6.094539762E-1,7.802078638E-1
1.067661078E0,-4.744769931E-1,1.596210003E-1,5.552800298E-1,7.476250345E-1
1.072673991E0,-5.166699886E-1,1.848219931E-1,4.875949919E-1,7.340680639E-1
1.077686683E0,-5.180889964E-1,1.686020046E-1,4.336290061E-1,6.963310701E-1
1.082699630E0,-4.718500078E-1,1.715160012E-1,3.788369894E-1,6.289496268E-1
1.087712477E0,-4.697380066E-1,2.081820071E-1,3.112959862E-1,6.007484781E-1
1.092725386E0,-4.566990137E-1,2.589679956E-1,2.302190065E-1,5.732706192E-1
1.097738309E0,-4.845780134E-1,2.826060057E-1,1.355099976E-1,5.771004808E-1
1.102750933E0,-4.907329977E-1,2.618640065E-1,8.241099864E-2,5.623017034E-1
1.107763933E0,-5.555959940E-1,2.570689917E-1,2.854700014E-2,6.128509658E-1
1.112776789E0,-6.099770069E-1,2.268999964E-1,1.541300025E-2,6.509939461E-1
1.117789482E0,-6.374980211E-1,2.243700027E-1,-1.138400007E-2,6.759254549E-1
1.122802636E0,-5.954430103E-1,2.328760028E-1,1.670300029E-2,6.395800196E-1
1.127815328E0,-5.917230248E-1,2.697870135E-1,-1.005899999E-2,6.504016869E-1
1.132828203E0,-6.328899860E-1,2.675009966E-1,-9.651999921E-3,6.871678679E-1
1.137841126E0,-6.748489738E-1,2.927890122E-1,-9.259000421E-3,7.356849000E-1
1.142853832E0,-6.695569754E-1,2.595190108E-1,3.265500069E-2,7.188344798E-1
1.147866755E0,-7.214390039E-1,2.560369968E-1,7.399599999E-2,7.690933547E-1
1.152879593E0,-7.508710027E-1,2.812710106E-1,1.289319992E-1,8.121232077E-1
1.157892593E0,-7.675610185E-1,3.200219870E-1,1.566880047E-1,8.462358537E-1
1.162905208E0,-7.453250289E-1,3.119969964E-1,1.854549944E-1,8.290024604E-1
1.167918362E0,-7.566710114E-1,3.075129986E-1,1.997690052E-1,8.408465492E-1
1.172931073E0,-7.859860063E-1,2.910259962E-1,1.731259972E-1,8.558286881E-1
1.177943996E0,-8.153910041E-1,2.882939875E-1,1.464650035E-1,8.771703997E-1
1.182956871E0,-7.886279821E-1,2.685590088E-1,1.205480024E-1,8.417777951E-1
1.187969795E0,-8.118420243E-1,2.644860148E-1,1.347499937E-1,8.644060882E-1
1.192982501E0,-8.126369715E-1,2.486789972E-1,1.079329997E-1,8.566619073E-1
1.197995424E0,-8.000770211E-1,2.196979970E-1,1.082869992E-1,8.367296599E-1
1.203008265E0,-7.353379726E-1,1.929380000E-1,1.361149997E-1,7.723174859E-1
1.208021188E0,-7.035319805E-1,2.043810040E-1,1.772239953E-1,7.537487558E-1
1.213033876E0,-6.628069878E-1,2.035740018E-1,1.909970045E-1,7.191907487E-1
1.218046799E0,-6.091309786E-1,1.894530058E-1,2.319740057E-1,6.787819457E-1
1.223059645E0,-5.576220155E-1,2.060140073E-1,3.008880019E-1,6.662714710E-1
1.228072568E0,-5.691159964E-1,2.181199938E-1,3.828290105E-1,7.197412037E-1
1.233085506E0,-5.980970263E-1,2.443830073E-1,4.783990085E-1,8.039332799E-1
1.238098429E0,-5.868899822E-1,2.973720133E-1,5.604640245E-1,8.642857678E-1
1.243111097E0,-5.642340183E-1,3.221099973E-1,5.897219777E-1,8.774319853E-1
1.248124020E0,-5.904870033E-1,3.723149896E-1,6.177340150E-1,9.321419773E-1
1.253136886E0,-5.931010246E-1,4.094739854E-1,6.457269788E-1,9.676782013E-1
1.258149809E0,-5.958499908E-1,4.733349979E-1,6.465889812E-1,9.985792619E-1
1.263162491E0,-5.087959766E-1,4.857259989E-1,6.239489913E-1,9.402741279E-1
1.268175414E0,-5.073829889E-1,5.052419901E-1,6.117699742E-1,9.417905645E-1
1.273188251E0,-5.632510185E-1,5.125560164E-1,5.993850231E-1,9.691376506E-1
1.278201174E0,-5.917419791E-1,5.328729749E-1,5.598790050E-1,9.734355024E-1
1.283213867E0,-5.417069793E-1,5.633519888E-1,4.983580112E-1,9.269156499E-1
1.288226790E0,-5.383449793E-1,5.798079967E-1,4.459399879E-1,9.082153393E-1
1.293239708E0,-5.379610062E-1,5.716130137E-1,4.066930115E-1,8.840490299E-1
1.298252554E0,-5.376700163E-1,5.773069859E-1,3.674019873E-1,8.702623872E-1
1.303265496E0,-4.771350026E-1,5.514540076E-1,3.339560032E-1,8.020510865E-1
1.308278419E0,-4.603469968E-1,5.679469705E-1,3.633449972E-1,8.163961696E-1
1.313291102E0,-4.606409967E-1,5.736879706E-1,3.922049999E-1,8.337462308E-1
1.318304025E0,-4.617750049E-1,5.928859711E-1,4.755989909E-1,8.893505102E-1
1.323316886E0,-3.955410123E-1,5.811110139E-1,5.106490254E-1,8.688527666E-1
1.328329809E0,-3.542219996E-1,5.821629763E-1,5.405390263E-1,8.698099763E-1
1.333342496E0,-3.565880060E-1,6.120349765E-1,5.156599879E-1,8.761546905E-1
1.338355342E0,-3.460800052E-1,6.681820154E-1,4.365310073E-1,8.699413176E-1
1.343368251E0,-3.269329965E-1,7.224630117E-1,3.392460048E-1,8.625113561E-1
1.348380944E0,-3.420769870E-1,8.139150143E-1,1.796929985E-1,9.009794055E-1
1.353393842E0,-3.592830002E-1,8.682659864E-1,-7.885999978E-3,9.396979762E-1
1.358406765E0,-3.764860034E-1,9.100199938E-1,-2.229149938E-1,1.009737191E0
1.363419679E0,-3.662430048E-1,8.854780197E-1,-4.110969901E-1,1.042691708E0
1.368432525E0,-3.149339855E-1,8.084769845E-1,-5.316240191E-1,1.017566974E0
1.373445457E0,-2.361550033E-1,6.931170225E-1,-5.437539816E-1,9.120574461E-1
1.378458150E0,-1.297170073E-1,5.804280043E-1,-4.747709930E-1,7.610063508E-1
1.383471073E0,-2.266299911E-2,4.705730081E-1,-3.519600034E-1,5.880717740E-1
1.388483905E0,7.142700255E-2,3.086169958E-1,-1.752209961E-1,3.620064423E-1
1.393496828E0,1.117630005E-1,1.078799963E-1,1.034999965E-3,1.553387688E-1
1.398509505E0,9.807199985E-2,-1.045719981E-1,1.768539995E-1,2.276636929E-1
1.403522428E0,9.829200059E-2,-3.427619934E-1,4.068129957E-1,5.409657244E-1
1.408535351E0,7.174000144E-2,-5.796099901E-1,6.773300171E-1,8.943546950E-1
1.413548198E0,7.320000231E-2,-8.288769722E-1,9.611949921E-1,1.271334373E0
1.418561102E0,1.163399965E-1,-1.035998940E0,1.190291047E0,1.582283659E0
1.423574025E0,1.872449964E-1,-1.255872965E0,1.432822943E0,1.914486662E0
1.428586717E0,2.176660001E-1,-1.488440990E0,1.743263006E0,2.302564001E0
1.433599645E0,2.623040080E-1,-1.639091015E0,2.067291021E0,2.651247803E0
1.438612491E0,3.760580122E-1,-1.708320975E0,2.323293924E0,2.908173798E0
1.443625401E0,5.313770175E-1,-1.751603961E0,2.443384886E0,3.052967027E0
1.448638324E0,6.052680016E-1,-1.782924056E0,2.509366035E0,3.137209818E0
1.453651000E0,5.974339843E-1,-1.816622019E0,2.521390915E0,3.164562382E0
1.458663846E0,6.031439900E-1,-1.771530032E0,2.452332020E0,3.084806909E0
1.463676769E0,5.945079923E-1,-1.730332971E0,2.288777113E0,2.930186447E0
1.468689692E0,5.986359715E-1,-1.679476976E0,2.017117977E0,2.692168805E0
1.473702362E0,6.695889831E-1,-1.591521025E0,1.637318969E0,2.379517175E0
1.478715285E0,7.527199984E-1,-1.452345014E0,1.203762054E0,2.030993973E0
1.483728236E0,8.613539934E-1,-1.328953028E0,7.298399806E-1,1.743764104E0
1.488740851E0,9.275709987E-1,-1.261670947E0,2.426840067E-1,1.584644144E0
1.493753991E0,9.784229994E-1,-1.208546042E0,-2.034540027E-1,1.568211922E0
1.498766683E0,1.027711034E0,-1.141733050E0,-4.861269891E-1,1.611230516E0
1.503779615E0,1.062623024E0,-1.087646008E0,-7.008649707E-1,1.674321724E0
1.508792539E0,1.069723964E0,-1.032570958E0,-9.021750093E-1,1.739089385E0
1.513805385E0,1.117380977E0,-9.895570278E-1,-1.035712957E0,1.816718109E0
1.518818077E0,1.151173949E0,-9.449080229E-1,-1.074259996E0,1.836324365E0
1.523831009E0,1.144304991E0,-8.709859848E-1,-1.072399020E0,1.793903608E0
1.528843932E0,1.028288960E0,-8.228030205E-1,-1.002768040E0,1.655272406E0
1.533856798E0,9.670869708E-1,-8.821550012E-1,-8.925989866E-1,1.584357159E0
1.538869491E0,9.471489787E-1,-8.995919824E-1,-8.235329986E-1,1.544203200E0
1.543882399E0,9.822450280E-1,-9.161379933E-1,-7.546759844E-1,1.540665427E0
1.548895245E0,1.044878006E0,-9.594740272E-1,-7.267839909E-1,1.593918262E0
1.553908168E0,1.053583026E0,-1.056833029E0,-7.262430191E-1,1.659627117E0
1.558921091E0,1.076670051E0,-1.126330018E0,-7.122349739E-1,1.713218131E0
1.563933798E0,1.141646981E0,-1.195080042E0,-7.392759919E-1,1.810553266E0
1.568946952E0,1.139588952E0,-1.290282011E0,-7.256559730E-1,1.868172165E0
1.573959645E0,1.152362943E0,-1.384621978E0,-6.713929772E-1,1.922468960E0
1.578972491E0,1.125676036E0,-1.478037000E0,-6.037470102E-1,1.953522552E0
1.583985428E0,1.086606979E0,-1.556972980E0,-5.226989985E-1,1.969287646E0
1.588998351E0,1.034791946E0,-1.621358991E0,-3.873969913E-1,1.962059066E0
1.594011053E0,1.010859966E0,-1.657714963E0,-2.250439972E-1,1.954610337E0
1.599023976E0,1.000957012E0,-1.679813027E0,-9.008099884E-2,1.957498744E0
1.604036808E0,9.639139771E-1,-1.728988051E0,1.129480004E-1,1.982747359E0
1.609049500E0,9.269379973E-1,-1.791805983E0,2.887470126E-1,2.037929726E0
1.614062429E0,9.035590291E-1,-1.855214953E0,3.965829909E-1,2.101313758E0
1.619075352E0,9.207919836E-1,-1.892169952E0,4.501250088E-1,2.151924146E0
1.624088193E0,9.510750175E-1,-1.916636944E0,4.903149903E-1,2.195096730E0
1.629101193E0,9.673079848E-1,-1.901361942E0,5.035250187E-1,2.191894025E0
1.634114058E0,1.010396004E0,-1.859827995E0,4.488619864E-1,2.163639836E0
1.639126751E0,1.025653958E0,-1.832738996E0,3.262929916E-1,2.125409463E0
1.644139660E0,1.053853035E0,-1.833446026E0,1.902389973E-1,2.123280816E0
1.649152506E0,1.067922950E0,-1.847869992E0,5.421200022E-2,2.134952429E0
1.654165424E0,1.067746043E0,-1.862213969E0,-6.820300221E-2,2.147690418E0
1.659178347E0,1.067077041E0,-1.848948956E0,-1.770759970E-1,2.142106804E0
1.664191039E0,1.052497029E0,-1.835085034E0,-2.452220023E-1,2.129652768E0
1.669203886E0,1.010594964E0,-1.806815982E0,-3.271659911E-1,2.095930285E0
1.674216823E0,9.001219869E-1,-1.764067054E0,-3.411949873E-1,2.009618417E0
1.679229746E0,8.714460135E-1,-1.815729022E0,-3.009560108E-1,2.036385169E0
1.684242448E0,8.705300093E-1,-1.784695029E0,-3.018040061E-1,2.008493092E0
1.689255602E0,8.292449713E-1,-1.739050031E0,-2.892610133E-1,1.948233601E0
1.694268280E0,7.744929790E-1,-1.747004032E0,-2.224330008E-1,1.923886406E0
1.699281203E0,7.064539790E-1,-1.754120946E0,-1.421770006E-1,1.896373333E0
1.704294064E0,6.659129858E-1,-1.733561993E0,-6.201399863E-2,1.858096613E0
1.709306756E0,5.981709957E-1,-1.671715975E0,-9.184000082E-3,1.775535746E0
1.714319693E0,5.304269791E-1,-1.623393059E0,9.811200202E-2,1.710667638E0
1.719332616E0,4.898099899E-1,-1.588690996E0,1.917970031E-1,1.673510979E0
1.724345471E0,4.626080096E-1,-1.527258992E0,2.719820142E-1,1.618795977E0
1.729358163E0,4.353849888E-1,-1.493499041E0,2.977859974E-1,1.583911605E0
1.734371097E0,4.081330001E-1,-1.460420012E0,2.692640126E-1,1.540098136E0
1.739384020E0,3.672049940E-1,-1.414325953E0,1.863960028E-1,1.473058341E0
1.744396847E0,3.125329912E-1,-1.328050971E0,1.445419937E-1,1.371965247E0
1.749409847E0,2.715899944E-1,-1.255952954E0,7.557100058E-2,1.287202363E0
1.754422462E0,2.581610084E-1,-1.184368968E0,2.032900043E-2,1.212349053E0
1.759435385E0,2.587539852E-1,-1.113073945E0,-6.209300086E-2,1.144439938E0
1.764448346E0,3.005360067E-1,-1.041967034E0,-1.580989957E-1,1.095907151E0
1.769461193E0,3.288500011E-1,-9.571769834E-1,-2.405000031E-1,1.040274172E0
1.774474116E0,3.028050065E-1,-9.131010175E-1,-2.956910133E-1,1.006418161E0
1.779487039E0,3.038559854E-1,-8.960790038E-1,-3.781610131E-1,1.018966041E0
1.784499721E0,2.772449851E-1,-8.244320154E-1,-4.061729908E-1,9.599632432E-1
1.789512567E0,2.774060071E-1,-7.661709785E-1,-4.206080139E-1,9.169968170E-1
1.794525461E0,3.044509888E-1,-7.213169932E-1,-4.487040043E-1,9.023989654E-1
1.799538154E0,3.175840080E-1,-6.761220098E-1,-4.496259987E-1,8.718739089E-1
1.804551087E0,3.577699959E-1,-6.305530071E-1,-4.370029867E-1,8.465034407E-1
1.809564010E0,4.115430117E-1,-5.980629921E-1,-3.700119853E-1,8.148348681E-1
1.814576865E0,4.381150007E-1,-5.785819888E-1,-3.031469882E-1,7.865112638E-1
1.819589557E0,4.646899998E-1,-5.720919967E-1,-2.091719955E-1,7.661455294E-1
1.824602702E0,5.049430132E-1,-5.788570046E-1,-1.016490012E-1,7.748389496E-1
1.829615394E0,4.907220006E-1,-5.854309797E-1,5.838000216E-3,7.639185795E-1
1.834628290E0,5.037289858E-1,-5.646960139E-1,9.969600290E-2,7.632586536E-1
1.839641213E0,5.167750120E-1,-5.440620184E-1,2.072010040E-1,7.784549756E-1
1.844654040E0,5.163260102E-1,-5.239480138E-1,2.875779867E-1,7.898197063E-1
1.849666963E0,4.887239933E-1,-5.316039920E-1,3.544459939E-1,8.044165019E-1
1.854679664E0,4.611020088E-1,-5.536659956E-1,3.806209862E-1,8.148824654E-1
1.859692587E0,4.607680142E-1,-5.491089821E-1,3.933059871E-1,8.176291559E-1
1.864705434E0,4.740670025E-1,-5.454069972E-1,3.653070033E-1,8.097268194E-1
1.869718352E0,4.736410081E-1,-5.424720049E-1,3.102279902E-1,7.841256829E-1
1.874731044E0,4.595730007E-1,-5.536469817E-1,2.552500069E-1,7.634689839E-1
1.879743876E0,4.591189921E-1,-5.651659966E-1,2.003439963E-1,7.552089574E-1
1.884756876E0,4.723950028E-1,-5.495709777E-1,1.454630047E-1,7.391513945E-1
1.889769708E0,4.584920108E-1,-5.475360155E-1,1.314300001E-1,7.261435514E-1
1.894782631E0,4.313159883E-1,-5.180670023E-1,1.582150012E-1,6.924296984E-1
1.899795563E0,4.320459962E-1,-5.018529892E-1,1.576759964E-1,6.807215917E-1
1.904808256E0,4.295780063E-1,-4.785319865E-1,8.255200088E-2,6.483401564E-1
1.909821102E0,3.321909904E-1,-4.993889928E-1,1.766539961E-1,6.252574307E-1
1.914834044E0,2.785240114E-1,-4.687770009E-1,2.032099962E-1,5.819121962E-1
1.919846736E0,2.524400055E-1,-4.385260046E-1,2.434539944E-1,5.615165718E-1
1.924859659E0,2.500750124E-1,-3.412680030E-1,2.652249932E-1,4.993452300E-1
1.929872583E0,2.088910043E-1,-2.819170058E-1,2.506600022E-1,4.312111856E-1
1.934885429E0,1.827089936E-1,-2.798930109E-1,2.366259992E-1,4.095296538E-1
1.939898352E0,1.837140024E-1,-2.785019875E-1,2.090959996E-1,3.937452587E-1
1.944911275E0,1.851799935E-1,-2.323119938E-1,1.647920012E-1,3.397306229E-1
1.949923967E0,2.387419939E-1,-1.889829934E-1,8.261299878E-2,3.154951965E-1
1.954936905E0,2.523159981E-1,-1.475840062E-1,5.527000129E-2,2.974881087E-1
1.959949828E0,2.932440042E-1,-1.065130010E-1,7.469999837E-4,3.119897810E-1
1.964962707E0,2.864980102E-1,-6.192699820E-2,-5.403900146E-2,2.980541505E-1
1.969975630E0,3.126429915E-1,-3.407099843E-2,-1.222350001E-1,3.374134976E-1
1.974988313E0,3.411659896E-1,-1.978199929E-2,-1.768720001E-1,3.847976928E-1
1.980001159E0,3.570039868E-1,8.690999821E-3,-2.180169970E-1,4.184002761E-1
1.985014068E0,3.474819958E-1,6.761000026E-3,-2.716160119E-1,4.410948950E-1
1.990026991E0,4.162510037E-1,9.766999632E-3,-2.994480133E-1,5.128639245E-1
1.995039684E0,4.739570022E-1,8.900000248E-4,-2.595680058E-1,5.403809597E-1
2.000052607E0,5.184419751E-1,-3.380500153E-2,-1.791020036E-1,5.495474387E-1
2.005065471E0,4.868229926E-1,-8.918300271E-2,-7.178600132E-2,5.001034533E-1
2.010078394E0,5.005279779E-1,-1.891839951E-1,7.634600252E-2,5.405067556E-1
2.015091317E0,5.036759973E-1,-2.890959978E-1,2.380139977E-1,6.276278111E-1
2.020104240E0,5.068899989E-1,-3.617089987E-1,3.996790051E-1,7.399420098E-1
2.025116937E0,5.370919704E-1,-4.076629877E-1,5.614680052E-1,8.774412898E-1
2.030129861E0,5.532870293E-1,-4.407030046E-1,6.689239740E-1,9.735527505E-1
2.035142693E0,5.553190112E-1,-4.612070024E-1,7.902179956E-1,1.070296961E0
2.040155385E0,5.296649933E-1,-4.831359982E-1,8.845499754E-1,1.138593016E0
2.045168331E0,4.628230035E-1,-4.660969973E-1,8.975149989E-1,1.112198146E0
2.050181254E0,4.230029881E-1,-4.234589934E-1,8.699259758E-1,1.055945193E0
2.055194105E0,3.966220021E-1,-3.959420025E-1,7.745119929E-1,9.560062286E-1
2.060207028E0,3.972269893E-1,-3.426679969E-1,6.521350145E-1,8.369532330E-1
2.065219716E0,3.601430058E-1,-2.793990076E-1,5.260779858E-1,6.960781832E-1
2.070232562E0,3.714140058E-1,-2.258789986E-1,4.037300050E-1,5.932685755E-1
2.075245485E0,3.986290097E-1,-2.162510008E-1,2.818669975E-1,5.339649679E-1
2.080258408E0,3.309589922E-1,-1.529410034E-1,1.192779988E-1,3.836040225E-1
2.085271100E0,3.182219863E-1,-1.035749987E-1,-4.326099902E-2,3.374381824E-1
2.090284222E0,2.921850085E-1,-4.066099972E-2,-2.330330014E-1,3.759385267E-1
2.095296915E0,2.525640130E-1,3.618799895E-2,-3.683820069E-1,4.481109851E-1
2.100309819E0,2.266229987E-1,7.276300341E-2,-4.629719853E-1,5.205722788E-1
2.105322665E0,2.142349929E-1,9.666000307E-2,-5.304939747E-1,5.802272361E-1
2.110335588E0,1.879439950E-1,1.078170016E-1,-5.709270239E-1,6.106595760E-1
2.115348264E0,1.474840045E-1,9.265600145E-2,-5.706539750E-1,5.966427955E-1
2.120361187E0,1.335570067E-1,6.464800239E-2,-5.432649851E-1,5.631639923E-1
2.125374024E0,1.459950060E-1,6.454700232E-2,-4.614939988E-1,4.883211732E-1
2.130386947E0,1.712660044E-1,7.839699835E-2,-3.661420047E-1,4.117500471E-1
2.135399625E0,1.688780040E-1,6.518399715E-2,-2.844319940E-1,3.371502527E-1
2.140412548E0,1.933600008E-1,6.566300243E-2,-2.299669981E-1,3.075459966E-1
2.145425394E0,2.312709987E-1,3.899800032E-2,-1.618919969E-1,2.849844514E-1
2.150438394E0,2.554480135E-1,1.235300023E-2,-6.657599658E-2,2.642700277E-1
2.155451235E0,2.932719886E-1,-7.590000168E-4,-1.210399996E-2,2.935226434E-1
2.160464158E0,3.720049858E-1,-2.960000129E-4,1.513299998E-2,3.723127781E-1
2.165476856E0,3.955630064E-1,-2.467600070E-2,5.637900159E-2,4.003218566E-1
2.170489779E0,4.716500044E-1,-3.785699978E-2,9.733500332E-2,4.830745097E-1
2.175502635E0,5.367829800E-1,-5.150900036E-2,1.519169956E-1,5.602391617E-1
2.180515558E0,6.026620269E-1,-6.545499712E-2,1.656669974E-1,6.284357002E-1
2.185528264E0,6.256740093E-1,-3.388600051E-2,1.936710030E-1,6.558389165E-1
2.190541188E0,6.880840063E-1,-3.440300003E-2,2.075970024E-1,7.195412994E-1
2.195554111E0,7.275220156E-1,-3.583500162E-2,1.670520008E-1,7.473143926E-1
2.200566957E0,7.131170034E-1,-3.765900061E-2,1.537950039E-1,7.304840615E-1
2.205579885E0,7.262430191E-1,-3.968999907E-2,1.133249998E-1,7.361024211E-1
2.210592808E0,7.394620180E-1,-4.190199822E-2,8.650700003E-2,7.456831194E-1
2.215605408E0,7.389940023E-1,-4.413599893E-2,5.969399959E-2,7.427136026E-1
2.220618408E0,7.657420039E-1,-5.992799997E-2,3.287199885E-2,7.687865439E-1
2.225631255E0,7.789480090E-1,-3.453499824E-2,1.960800029E-2,7.799597044E-1
2.230643947E0,8.331609964E-1,-8.818999864E-3,-7.340999786E-3,8.332400081E-1
2.235657096E0,8.466699719E-1,-9.996999986E-3,6.500000134E-3,8.467539379E-1
2.240669788E0,8.331609964E-1,-1.070300024E-2,4.748899862E-2,8.345819344E-1
2.245682634E0,7.278479934E-1,3.632999957E-3,7.665800303E-2,7.318827431E-1
2.250695557E0,6.685519814E-1,1.724600047E-2,1.313509941E-1,6.815513628E-1
2.255708270E0,5.865679979E-1,3.068099916E-2,1.994979978E-1,6.203247464E-1
2.260721193E0,5.187829733E-1,7.114399970E-2,2.812789977E-1,5.944031600E-1
2.265734063E0,4.231739938E-1,1.211659983E-1,3.378280103E-1,5.548740332E-1
2.270747063E0,3.664140105E-1,1.603229940E-1,3.927319944E-1,5.605364475E-1
2.275759909E0,2.850739956E-1,1.992910057E-1,4.066849947E-1,5.351418250E-1
2.280772832E0,1.903569996E-1,2.513389885E-1,4.343490005E-1,5.367179228E-1
2.285785514E0,1.293729991E-1,2.890459895E-1,4.241710007E-1,5.293448732E-1
2.290798438E0,1.024219990E-1,3.520930111E-1,4.251079857E-1,5.614058727E-1
2.295811366E0,9.013999999E-2,4.158029854E-1,3.986319900E-1,5.830307073E-1
2.300824212E0,1.600929946E-1,4.382520020E-1,4.130719900E-1,6.231557214E-1
2.305836904E0,1.151520014E-1,5.249819756E-1,3.111599982E-1,6.210367159E-1
2.310849827E0,3.569199890E-2,5.845699906E-1,2.718409896E-1,6.456729175E-1
2.315862697E0,-4.287699983E-2,6.331710219E-1,1.911139935E-1,6.627733690E-1
2.320875620E0,-1.077430025E-1,6.546880007E-1,1.239779964E-1,6.749781303E-1
2.325888289E0,-1.456470042E-1,7.172899842E-1,4.319500178E-2,7.332010498E-1
2.330901212E0,-1.566579938E-1,7.390930057E-1,4.414200038E-2,7.568016347E-1
2.335914111E0,-1.543619931E-1,7.609949708E-1,4.508800060E-2,7.778006803E-1
2.340926957E0,-1.387130022E-1,7.965720296E-1,4.603699967E-2,8.098689404E-1
2.345939971E0,-1.232390031E-1,8.595049977E-1,4.697699845E-2,8.695651392E-1
2.350952587E0,-9.441799670E-2,8.678690195E-1,4.794799909E-2,8.743056695E-1
2.355965740E0,-6.583700329E-2,8.490809798E-1,4.891699925E-2,8.530333488E-1
2.360978433E0,-3.758199885E-2,8.167780042E-1,4.988199845E-2,8.191623334E-1
2.365991365E0,1.756599918E-2,8.120729923E-1,6.441400200E-2,8.148130294E-1
2.371004211E0,9.961900115E-2,8.213040233E-1,1.197609976E-1,8.359467331E-1
2.376017139E0,1.542340070E-1,8.036580086E-1,1.886679977E-1,8.397916033E-1
2.381029831E0,2.222200036E-1,7.590889931E-1,3.120029867E-1,8.502609559E-1
2.386042693E0,2.765069902E-1,7.281299829E-1,4.081049860E-1,8.793060146E-1
2.391055616E0,2.900159955E-1,7.105609775E-1,5.178719759E-1,9.258496442E-1
2.396068553E0,3.036609888E-1,6.926079988E-1,5.868520141E-1,9.572414129E-1
2.401081245E0,3.310410082E-1,6.878629923E-1,6.422920227E-1,9.976385557E-1
2.406094168E0,3.447450101E-1,6.826729774E-1,6.161050200E-1,9.820778543E-1
2.411106999E0,3.579800129E-1,6.772090197E-1,6.036189795E-1,9.752525920E-1
2.416119922E0,3.707340062E-1,6.441469789E-1,6.593340039E-1,9.935242133E-1
2.421132845E0,3.696419895E-1,6.104360223E-1,7.424370050E-1,1.029796118E0
2.426145784E0,3.824050128E-1,5.759450197E-1,7.984529734E-1,1.056159747E0
2.431158707E0,3.956040144E-1,5.403490067E-1,7.865849733E-1,1.033051550E0
2.436171384E0,4.227359891E-1,5.172129869E-1,7.477099895E-1,1.002639127E0
2.441184230E0,4.365549982E-1,5.203030109E-1,6.954249740E-1,9.720655246E-1
2.446197153E0,4.119560122E-1,5.123090148E-1,6.359379888E-1,9.146504295E-1
2.451209846E0,3.693389893E-1,5.519469976E-1,4.893839955E-1,8.249566487E-1
2.456222769E0,2.883360088E-1,5.659210086E-1,3.560140133E-1,7.281141529E-1
2.461235630E0,1.804250032E-1,5.253520012E-1,2.226600051E-1,5.984357817E-1
2.466248553E0,9.407000244E-2,4.310820103E-1,1.090760008E-1,4.545090086E-1
2.471261245E0,8.112899959E-2,3.616180122E-1,-1.018999983E-2,3.707469992E-1
2.476274394E0,2.763500065E-2,3.363200128E-1,-4.847100005E-2,3.409168258E-1
2.481287086E0,-1.257499959E-2,3.263849914E-1,-5.987500027E-2,3.320697350E-1
2.486299990E0,-6.691599637E-2,2.902480066E-1,-4.424099997E-2,3.011294107E-1
2.491312837E0,-1.216749996E-1,2.414789945E-1,2.567699924E-2,2.716177803E-1
2.496325765E0,-1.632229984E-1,1.526580006E-1,6.819800287E-2,2.336603945E-1
2.501338457E0,-1.913439929E-1,1.056400016E-1,1.105159968E-1,2.449206384E-1
2.506351380E0,-1.920270026E-1,7.018200308E-2,1.254110038E-1,2.398495427E-1
2.511364245E0,-2.189799994E-1,3.830699995E-2,1.264680028E-1,2.557612600E-1
2.516377168E0,-2.744129896E-1,-1.911499910E-2,1.271950006E-1,3.030617763E-1
2.521390115E0,-2.754920125E-1,-1.427170038E-1,1.547230035E-1,3.467033313E-1
2.526402808E0,-2.627840042E-1,-3.187170029E-1,2.498620003E-1,4.827701109E-1
2.531415731E0,-1.816319972E-1,-4.922069907E-1,3.035430014E-1,6.061322115E-1
2.536428654E0,-4.584399983E-2,-6.629379988E-1,4.110620022E-1,7.813836652E-1
2.541441481E0,1.169319972E-1,-8.447610140E-1,6.269789934E-1,1.058488035E0
2.546454404E0,2.387750000E-1,-1.010681987E0,9.649699926E-1,1.417624303E0
2.551467341E0,3.474330008E-1,-1.107074976E0,1.316249967E0,1.754661981E0
2.556480034E0,4.022299945E-1,-1.230021954E0,1.626502037E0,2.078521554E0
2.561492957E0,4.305669963E-1,-1.380936980E0,1.896039009E0,2.384814208E0
2.566505803E0,4.460720122E-1,-1.533311009E0,2.138639927E0,2.669045453E0
2.571518495E0,4.353800118E-1,-1.647304058E0,2.340893984E0,2.895332633E0
2.576531418E0,3.851259947E-1,-1.737236023E0,2.421217918E0,3.004764091E0
2.581544341E0,3.225820065E-1,-1.790359020E0,2.352559090E0,2.973882789E0
2.586557174E0,2.750220001E-1,-1.833866954E0,2.121283054E0,2.817542706E0
2.591570097E0,2.284680009E-1,-1.867794037E0,1.754662037E0,2.572876028E0
2.596582793E0,1.826660037E-1,-1.891649961E0,1.307090998E0,2.306554426E0
2.601595716E0,1.234129965E-1,-1.877256036E0,8.328769803E-1,2.057426805E0
2.606608562E0,7.805100083E-2,-1.864650965E0,3.318420053E-1,1.895556461E0
2.611621461E0,3.253899887E-2,-1.852715969E0,-1.417600065E-1,1.858416301E0
2.616634384E0,-1.347399969E-2,-1.813420057E0,-5.336149931E-1,1.890348860E0
2.621647307E0,-7.425899804E-2,-1.786576986E0,-8.439400196E-1,1.977272486E0
2.626660000E0,-1.225069985E-1,-1.744753003E0,-1.086410999E0,2.058994868E0
2.631672938E0,-1.858370006E-1,-1.701341033E0,-1.247455001E0,2.117838681E0
2.636685784E0,-2.505599856E-1,-1.670045972E0,-1.327062011E0,2.147772668E0
2.641698702E0,-3.166159987E-1,-1.623299003E0,-1.352558970E0,2.136530157E0
2.646711394E0,-3.562139869E-1,-1.588688016E0,-1.378370047E0,2.133242134E0
2.651724300E0,-3.693139851E-1,-1.565994978E0,-1.390933037E0,2.126835161E0
2.656737146E0,-4.239749908E-1,-1.555297971E0,-1.376611948E0,2.119850708E0
2.661750073E0,-4.793809950E-1,-1.556460977E0,-1.253718019E0,2.055282409E0
2.666762765E0,-4.805209935E-1,-1.569700003E0,-1.144804001E0,2.001358220E0
2.671775900E0,-5.226960182E-1,-1.635867000E0,-1.077111959E0,2.027175903E0
2.676788515E0,-6.196460128E-1,-1.700363994E0,-9.553229809E-1,2.046421484E0
2.681801520E0,-7.032520175E-1,-1.763188958E0,-8.066759706E-1,2.062552987E0
2.686814367E0,-7.190870047E-1,-1.837852955E0,-6.311910152E-1,2.072001859E0
2.691827266E0,-7.078340054E-1,-1.897174001E0,-4.152379930E-1,2.067056061E0
2.696839958E0,-6.557180285E-1,-1.981940985E0,-1.996960044E-1,2.097125341E0
2.701852876E0,-5.761820078E-1,-2.024496078E0,5.640000105E-2,2.105647415E0
2.706865722E0,-4.962700009E-1,-2.065951109E0,2.986229956E-1,2.145603317E0
2.711878664E0,-4.566299915E-1,-2.120366096E0,5.134509802E-1,2.228922440E0
2.716891587E0,-4.299480021E-1,-2.174544096E0,7.009779811E-1,2.324837078E0
2.721904270E0,-4.572120011E-1,-2.242966890E0,8.614060283E-1,2.445805313E0
2.726917193E0,-4.702019989E-1,-2.298625946E0,9.811589718E-1,2.543117002E0
2.731930039E0,-4.823319912E-1,-2.314579964E0,1.087533951E0,2.602432449E0
2.736942962E0,-4.795449972E-1,-2.304507017E0,1.139660954E0,2.615252012E0
2.741955881E0,-4.618529975E-1,-2.227794886E0,1.083112001E0,2.519823377E0
2.746968573E0,-4.839929938E-1,-2.179397106E0,9.995300174E-1,2.446033773E0
2.751981516E0,-5.189859867E-1,-2.159250975E0,9.161509871E-1,2.402299702E0
2.756994439E0,-5.397639871E-1,-2.153660059E0,8.057219982E-1,2.361945120E0
2.762007309E0,-5.604950190E-1,-2.121762037E0,6.410229802E-1,2.286250045E0
2.767020001E0,-5.405550003E-1,-2.090373993E0,4.764490128E-1,2.211078199E0
2.772032928E0,-4.940730035E-1,-2.032092094E0,2.983590066E-1,2.112468819E0
2.777045851E0,-4.484679997E-1,-1.960113049E0,1.475290060E-1,2.016167532E0
2.782058693E0,-3.630770147E-1,-1.860468984E0,-1.697300002E-2,1.895641802E0
2.787071617E0,-2.650989890E-1,-1.746454954E0,-1.543589979E-1,1.773191778E0
2.792084308E0,-1.817719936E-1,-1.699612021E0,-2.238070071E-1,1.723894329E0
2.797097231E0,-9.944999963E-2,-1.651715994E0,-2.389619946E-1,1.671872861E0
2.802110150E0,-4.478000104E-3,-1.616552949E0,-2.542699873E-1,1.636434146E0
2.807122996E0,1.168129966E-1,-1.580422044E0,-2.425059974E-1,1.603180673E0
2.812136019E0,2.099130005E-1,-1.529943943E0,-1.763750017E-1,1.554316595E0
2.817148865E0,3.020330071E-1,-1.478935957E0,-1.239330024E-1,1.514541149E0
2.822161568E0,3.795779943E-1,-1.414317012E0,-9.868299961E-2,1.467688795E0
2.827174491E0,4.558829963E-1,-1.336078048E0,-3.251599893E-2,1.412087514E0
2.832187341E0,5.587239861E-1,-1.285411000E0,3.375700116E-2,1.401996244E0
2.837200033E0,6.475099921E-1,-1.235244036E0,4.568300024E-2,1.395415334E0
2.842212952E0,6.818199754E-1,-1.186025977E0,5.781900138E-2,1.369262259E0
2.847225875E0,7.299759984E-1,-1.123932004E0,7.011000067E-2,1.342014724E0
2.852238731E0,7.787449956E-1,-1.062664986E0,4.169600084E-2,1.318119568E0
2.857251654E0,7.871840000E-1,-9.884610176E-1,-1.383099984E-2,1.263687117E0
2.862264341E0,7.689290047E-1,-9.424149990E-1,-8.280699700E-2,1.219120520E0
2.867277264E0,6.962720156E-1,-8.563420177E-1,-1.652330011E-1,1.115983116E0
2.872290105E0,5.961700082E-1,-7.575770020E-1,-2.338380069E-1,9.919787327E-1
2.877303105E0,4.958510101E-1,-6.596189737E-1,-3.431290090E-1,8.937018135E-1
2.882315937E0,4.362069964E-1,-5.353130102E-1,-4.794690013E-1,8.406706167E-1
2.887328861E0,3.760910034E-1,-4.116210043E-1,-6.429039836E-1,8.510004854E-1
2.892341567E0,3.155109882E-1,-3.430269957E-1,-7.789509892E-1,9.077330814E-1
2.897354490E0,2.411019951E-1,-2.883889973E-1,-9.012969732E-1,9.765421751E-1
2.902367312E0,1.396459937E-1,-2.473140061E-1,-1.050899982E0,1.088602772E0
2.907380235E0,6.564600021E-2,-2.056169957E-1,-1.173392057E0,1.193078651E0
2.912392915E0,5.768000148E-3,-1.900669932E-1,-1.255262017E0,1.269583185E0
2.917405838E0,-8.068100363E-2,-1.593250036E-1,-1.296614051E0,1.308855178E0
2.922418650E0,-1.798039973E-1,-1.675599962E-1,-1.283903003E0,1.307215648E0
2.927431573E0,-3.054539859E-1,-1.870220006E-1,-1.230836034E0,1.281887947E0
2.932444260E0,-4.169799984E-1,-2.175849974E-1,-1.082944036E0,1.180670714E0
2.937457414E0,-4.738819897E-1,-2.318920046E-1,-8.947029710E-1,1.038668113E0
2.942470101E0,-5.716369748E-1,-2.850010097E-1,-6.387460232E-1,9.033221400E-1
2.947483024E0,-6.423529983E-1,-3.769840002E-1,-3.558979928E-1,8.254681654E-1
2.952495933E0,-7.404050231E-1,-4.811300039E-1,-3.243299946E-2,8.835935595E-1
2.957508779E0,-8.245959878E-1,-5.840960145E-1,3.180750012E-1,1.059385862E0
2.962521707E0,-8.808199763E-1,-6.051099896E-1,6.413069963E-1,1.246305177E0
2.967534399E0,-9.226459861E-1,-6.257699728E-1,9.236180186E-1,1.447734064E0
2.972547317E0,-9.498869777E-1,-6.738139987E-1,1.178712010E0,1.657007115E0
2.977560163E0,-1.003337979E0,-7.493720055E-1,1.365749002E0,1.852974862E0
2.982573081E0,-1.042139053E0,-8.261860013E-1,1.512141943E0,2.013755291E0
2.987585774E0,-1.039134026E0,-8.629410267E-1,1.658668995E0,2.139076804E0
2.992598707E0,-1.007856965E0,-8.871719837E-1,1.764513969E0,2.217286481E0
2.997611630E0,-9.755610228E-1,-8.852720261E-1,1.829674959E0,2.254581186E0
3.002624490E0,-9.426630139E-1,-8.715879917E-1,1.827051044E0,2.233023668E0
3.007637413E0,-9.231050014E-1,-8.593689799E-1,1.742967010E0,2.151411603E0
3.012650336E0,-8.901839852E-1,-8.486009836E-1,1.659158945E0,2.065274694E0
3.017663029E0,-8.442469835E-1,-8.117470145E-1,1.561967969E0,1.952288432E0
3.022675952E0,-7.723029852E-1,-7.626709938E-1,1.410595059E0,1.779858805E0
3.027688774E0,-7.020140290E-1,-7.418869734E-1,1.286718011E0,1.642821724E0
3.032701697E0,-6.065620184E-1,-6.949390173E-1,1.176736951E0,1.495181451E0
3.037714389E0,-4.586020112E-1,-6.215400100E-1,1.080595970E0,1.328275363E0
3.042727312E0,-3.532739878E-1,-5.493199825E-1,9.983500242E-1,1.193003657E0
3.047740240E0,-2.630450130E-1,-5.054659843E-1,9.163569808E-1,1.079073054E0
3.052753087E0,-2.011869997E-1,-4.901719987E-1,8.073959947E-1,9.657293044E-1
3.057766058E0,-1.264660060E-1,-4.624829888E-1,6.986749768E-1,8.473670332E-1
3.062778673E0,-5.192599818E-2,-4.087190032E-1,5.356780291E-1,6.757947053E-1
3.067791615E0,2.217599936E-2,-3.421700001E-1,4.000859857E-1,5.269163879E-1
3.072804538E0,1.644549966E-1,-3.034490049E-1,2.918339968E-1,4.519887456E-1
3.077817384E0,2.662689984E-1,-2.514680028E-1,1.291490048E-1,3.883488141E-1
3.082830307E0,3.413749933E-1,-1.997170001E-1,-3.351800144E-2,3.969221871E-1
3.087843231E0,3.759379983E-1,-1.480610073E-1,-1.553210020E-1,4.328695578E-1
3.092855943E0,3.970530033E-1,-1.100820005E-1,-2.771160007E-1,4.965505131E-1
3.097868789E0,3.773100078E-1,-8.561799675E-2,-3.989259899E-1,5.557294564E-1
3.102881683E0,3.574889898E-1,-4.727600142E-2,-5.207690001E-1,6.334301458E-1
3.107894375E0,3.237940073E-1,-2.237199992E-2,-6.017640233E-1,6.837126628E-1
3.112907289E0,3.034549952E-1,1.649699919E-2,-6.555560231E-1,7.225723386E-1
3.117920212E0,2.828670144E-1,4.213700071E-2,-6.685360074E-1,7.271379978E-1
3.122933053E0,2.623899877E-1,4.084699973E-2,-6.543269753E-1,7.061591702E-1
3.127945976E0,2.284989953E-1,2.613900043E-2,-6.401579976E-1,6.802185679E-1
3.132958880E0,1.677670032E-1,-1.569899917E-2,-6.260259748E-1,6.483060597E-1
3.137971572E0,1.074780002E-1,-4.377700016E-2,-5.983179808E-1,6.094689101E-1
3.142984495E0,3.428699821E-2,-7.144899666E-2,-5.979560018E-1,6.031848286E-1
3.147997418E0,-1.091099996E-2,-4.409699887E-2,-5.568649769E-1,5.587147731E-1
3.153010279E0,-6.905099750E-2,-4.318999872E-2,-5.295649767E-1,5.357914527E-1
3.158023202E0,-1.129219979E-1,-4.113199934E-2,-5.024960041E-1,5.166676428E-1
3.163035885E0,-1.563439965E-1,-9.244900197E-2,-4.347749949E-1,4.711895153E-1
3.168048808E0,-1.859059930E-1,-1.425949931E-1,-3.264020085E-1,4.017868110E-1
3.173061639E0,-2.153760046E-1,-1.918900013E-1,-2.045529932E-1,3.536248336E-1
3.178074562E0,-2.447350025E-1,-2.134000063E-1,-4.193500057E-2,3.274039224E-1
3.183087270E0,-2.055750042E-1,-2.210280001E-1,1.206159964E-1,3.250579607E-1
3.188100193E0,-1.524049938E-1,-2.285930067E-1,2.422779948E-1,3.663067998E-1
3.193113058E0,-1.125869974E-1,-2.773720026E-1,3.639859855E-1,4.712715326E-1
3.198125981E0,-9.980300069E-2,-3.129619956E-1,4.448949993E-1,5.530256866E-1
3.203138899E0,-1.277800053E-1,-3.357309997E-1,5.123100281E-1,6.257032834E-1
3.208151822E0,-1.692499965E-1,-3.456760049E-1,5.389879942E-1,6.623031931E-1
3.213164755E0,-1.833470017E-1,-3.154250085E-1,5.521479845E-1,6.617978965E-1
3.218177448E0,-1.836010069E-1,-2.721750140E-1,5.790169835E-1,6.656194372E-1
3.223190375E0,-1.837179959E-1,-2.161000073E-1,5.379040241E-1,6.081054632E-1
3.228203221E0,-2.109989971E-1,-2.151380032E-1,5.105100274E-1,5.928114585E-1
3.233216135E0,-2.247399986E-1,-2.284819931E-1,4.832319915E-1,5.798493302E-1
3.238228827E0,-2.112579942E-1,-2.287970036E-1,4.288100004E-1,5.299585129E-1
3.243241735E0,-1.705970019E-1,-1.615509987E-1,4.153400064E-1,4.771890434E-1
3.248254582E0,-1.027100012E-1,-9.474200010E-2,3.747020066E-1,3.999087204E-1
3.253267486E0,-4.856999964E-2,-2.827700041E-2,3.477469981E-1,3.522592913E-1
3.258280178E0,-4.914499819E-2,-3.040499985E-2,3.208869994E-1,3.260493233E-1
3.263293356E0,-6.346300244E-2,-5.692000035E-3,3.077189922E-1,3.142466065E-1
3.268306048E0,-5.902700126E-2,5.864100158E-2,2.808249891E-1,2.928918374E-1
3.273318990E0,-3.222899884E-2,1.234700009E-1,2.405250072E-1,2.722789537E-1
3.278331836E0,7.404000033E-3,1.744509935E-1,1.866900027E-1,2.556191023E-1
3.283344790E0,1.934400015E-2,2.116100043E-1,1.465370059E-1,2.581202789E-1
3.288357482E0,-2.128699981E-2,2.088750005E-1,1.492229998E-1,2.575837842E-1
3.293370424E0,-5.040999874E-2,2.448530048E-1,1.773889959E-1,3.065306148E-1
3.298383270E0,-3.882300109E-2,3.229790032E-1,1.781110018E-1,3.708722029E-1
3.303396203E0,-2.726400085E-2,3.742780089E-1,1.787669957E-1,4.156741422E-1
3.308409126E0,-2.657699957E-2,3.624309897E-1,1.830179989E-1,4.068883719E-1
3.313421819E0,-4.217699915E-2,3.574829996E-1,1.976010054E-1,4.106326236E-1
3.318434742E0,-4.442099854E-2,3.548220098E-1,2.254330069E-1,4.227196758E-1
3.323447650E0,-1.914599910E-2,3.664369881E-1,2.667559981E-1,4.536533898E-1
3.328460265E0,6.362000015E-3,4.056349993E-1,3.080079854E-1,5.093615089E-1
3.333473424E0,3.219699860E-2,4.587559998E-1,3.764289916E-1,5.943000082E-1
3.338486116E0,3.757999977E-3,4.847269952E-1,4.448210001E-1,6.579058478E-1
3.343499005E0,-6.541399658E-2,4.698610008E-1,5.132030249E-1,6.988745923E-1
3.348511929E0,-1.345320046E-1,4.411279857E-1,5.952450037E-1,7.530002487E-1
3.353524770E0,-1.764030010E-1,4.391939938E-1,6.773620248E-1,8.263344937E-1
3.358537693E0,-1.912250072E-1,4.638780057E-1,7.323579788E-1,8.877488478E-1
3.363550381E0,-2.334540039E-1,4.877910018E-1,7.738770247E-1,9.441008859E-1
3.368563227E0,-2.757830024E-1,5.245720148E-1,8.291550279E-1,1.019181104E0
3.373576145E0,-3.043119907E-1,5.606279969E-1,8.300679922E-1,1.046863129E0
3.378588838E0,-3.190079927E-1,6.096209884E-1,8.038489819E-1,1.058100673E0
3.383601770E0,-3.198769987E-1,6.311169863E-1,7.776640058E-1,1.051375884E0
3.388614693E0,-3.613600135E-1,6.526139975E-1,7.787079811E-1,1.078365527E0
3.393627539E0,-4.024389982E-1,6.740940213E-1,7.661129832E-1,1.096945304E0
3.398640539E0,-4.567829967E-1,6.548269987E-1,7.670999765E-1,1.107199837E0
3.403653169E0,-5.108180046E-1,6.355379820E-1,7.680739760E-1,1.120170163E0
3.408666323E0,-5.644990206E-1,6.434620023E-1,7.962750196E-1,1.169083573E0
3.413679040E0,-6.040769815E-1,6.785709858E-1,8.380799890E-1,1.236020085E0
3.418691963E0,-6.293230057E-1,7.134649754E-1,9.071230292E-1,1.314515845E0
3.423704819E0,-6.536980271E-1,7.347779870E-1,9.488679767E-1,1.366590735E0
3.428717742E0,-6.771370173E-1,7.423139811E-1,9.633470178E-1,1.391970568E0
3.433730438E0,-7.135369778E-1,7.224429846E-1,9.642019868E-1,1.400265816E0
3.438743284E0,-7.631739974E-1,6.614410281E-1,9.923290014E-1,1.415858620E0
3.443756199E0,-7.986620069E-1,6.001679897E-1,1.088582039E0,1.477522749E0
3.448769122E0,-7.926959991E-1,5.791090131E-1,1.048722029E0,1.436506906E0
3.453781828E0,-8.138759732E-1,5.572919846E-1,1.049867034E0,1.440551715E0
3.458794982E0,-8.077930212E-1,5.481470227E-1,1.092057943E0,1.464781648E0
3.463807573E0,-8.151440024E-1,5.517709851E-1,1.120789051E0,1.491669890E0
3.468820573E0,-8.220710158E-1,5.405960083E-1,1.095250010E0,1.472283052E0
3.473833405E0,-8.288310170E-1,5.009580255E-1,1.001847029E0,1.393419272E0
3.478846328E0,-8.492490053E-1,4.736869931E-1,9.223269820E-1,1.340257551E0
3.483859266E0,-8.562639952E-1,4.592449963E-1,7.885119915E-1,1.251337347E0
3.488871958E0,-8.498160243E-1,4.847790003E-1,6.140450239E-1,1.155097072E0
3.493884881E0,-8.435040116E-1,5.233460069E-1,4.533469975E-1,1.091289861E0
3.498897727E0,-8.508989811E-1,5.343340039E-1,2.655139863E-1,1.039249528E0
3.503910684E0,-8.448460102E-1,5.324270129E-1,6.395500153E-2,1.000666551E0
3.508923377E0,-8.115249872E-1,4.768170118E-1,-1.104879975E-1,9.476997759E-1
3.513936236E0,-7.646030188E-1,4.089869857E-1,-2.443249971E-1,9.008789236E-1
3.518949159E0,-6.904889941E-1,3.292450011E-1,-3.240019977E-1,8.307554491E-1
3.523962092E0,-5.891690254E-1,2.791520059E-1,-3.224279881E-1,7.273278424E-1
3.528975015E0,-4.603709877E-1,2.040340006E-1,-2.804439962E-1,5.763854220E-1
3.533987933E0,-3.585929871E-1,9.037899971E-2,-1.708370000E-1,4.073604970E-1
3.539000625E0,-2.836360037E-1,-6.194100156E-2,-2.083200030E-2,2.910670756E-1
3.544013562E0,-2.083790004E-1,-2.799989879E-1,1.422969997E-1,3.769213143E-1
3.549026409E0,-1.326529980E-1,-5.093849897E-1,3.730430007E-1,6.451596438E-1
3.554039332E0,-5.660700053E-2,-7.364389896E-1,6.577849984E-1,9.890540137E-1
3.559052024E0,4.701400176E-2,-9.748229980E-1,9.556750059E-1,1.365944695E0
3.564064933E0,1.230899990E-1,-1.197715998E0,1.307690978E0,1.777563066E0
3.569077779E0,1.851830035E-1,-1.460013032E0,1.700306058E0,2.248771106E0
3.574090693E0,2.058659941E-1,-1.694342017E0,2.079195023E0,2.690023721E0
3.579103616E0,2.533560097E-1,-1.887874007E0,2.430892944E0,3.088283996E0
3.584116318E0,3.002620041E-1,-2.014468908E0,2.701139927E0,3.382957162E0
3.589129472E0,3.331699967E-1,-2.101938009E0,2.903656006E0,3.600050533E0
3.594142159E0,3.929289877E-1,-2.164679050E0,3.011349916E0,3.729404363E0
3.599154774E0,4.662570059E-1,-2.189745903E0,3.024336100E0,3.762843547E0
3.604167928E0,4.986700118E-1,-2.204853058E0,2.847362041E0,3.635590651E0
3.609180621E0,4.494639933E-1,-2.182738066E0,2.643863916E0,3.457799843E0
3.614193530E0,4.277879894E-1,-2.150738001E0,2.359376907E0,3.221076824E0
3.619206453E0,3.792450130E-1,-2.095190048E0,1.939422011E0,2.880105181E0
3.624219313E0,3.714919984E-1,-2.001933098E0,1.479261994E0,2.516735680E0
3.629232236E0,3.771179914E-1,-1.925107956E0,9.516100287E-1,2.180325725E0
3.634244952E0,4.093970060E-1,-1.795662045E0,4.107820094E-1,1.886994952E0
3.639257798E0,4.272400141E-1,-1.694601059E0,-8.887100220E-2,1.749887092E0
3.644270717E0,4.441609979E-1,-1.620414972E0,-5.204160213E-1,1.758936187E0
3.649283409E0,4.602229893E-1,-1.572641969E0,-8.703349829E-1,1.855395091E0
3.654296525E0,5.030159950E-1,-1.509763002E0,-1.070687056E0,1.918014647E0
3.659309217E0,5.184109807E-1,-1.459004998E0,-1.189594984E0,1.952583354E0
3.664322126E0,5.200430155E-1,-1.406322002E0,-1.240785003E0,1.946210095E0
3.669335049E0,4.805960059E-1,-1.393419981E0,-1.278556943E0,1.951230284E0
3.674347876E0,4.134759903E-1,-1.393085003E0,-1.275663972E0,1.933640812E0
3.679360799E0,3.593569994E-1,-1.392104030E0,-1.300114989E0,1.938398841E0
3.684373492E0,3.996720016E-1,-1.376773000E0,-1.242957950E0,1.897415628E0
3.689386415E0,4.801160097E-1,-1.334324002E0,-1.172112942E0,1.839777344E0
3.694399285E0,4.648370147E-1,-1.319054961E0,-1.182976961E0,1.831778898E0
3.699412208E0,4.084340036E-1,-1.317442060E0,-1.289147973E0,1.887955087E0
3.704424885E0,2.694120109E-1,-1.288267970E0,-1.477067947E0,1.978369762E0
3.709437809E0,2.109590024E-1,-1.395017028E0,-1.501551986E0,2.060396703E0
3.714450655E0,1.927679926E-1,-1.473716021E0,-1.607908964E0,2.189604906E0
3.719463597E0,2.150460035E-1,-1.551239967E0,-1.673648000E0,2.292092460E0
3.724476520E0,2.780730128E-1,-1.640624046E0,-1.644438982E0,2.339476742E0
3.729489208E0,3.820129931E-1,-1.742176056E0,-1.506602049E0,2.334729336E0
3.734502362E0,4.867280126E-1,-1.842247963E0,-1.341891050E0,2.330547855E0
3.739515063E0,5.926219821E-1,-1.900024056E0,-1.191177964E0,2.319525204E0
3.744527910E0,6.452519894E-1,-1.969987035E0,-1.054466963E0,2.325747111E0
3.749540823E0,6.580809951E-1,-2.011502028E0,-8.363580108E-1,2.275676982E0
3.754553746E0,6.584209800E-1,-2.010921001E0,-6.458230019E-1,2.212331081E0
3.759566438E0,6.458569765E-1,-2.009280920E0,-5.372859836E-1,2.177846936E0
3.764579357E0,6.058089733E-1,-2.033993959E0,-4.289470017E-1,2.165209336E0
3.769592203E0,5.375639796E-1,-2.085421085E0,-2.662129998E-1,2.169982833E0
3.774605110E0,5.091750026E-1,-2.136539936E0,-1.035130024E-1,2.198812639E0
3.779617803E0,4.934870005E-1,-2.160238028E0,4.699999932E-3,2.215892562E0
3.784630722E0,5.178210139E-1,-2.115901947E0,5.848300084E-2,2.179128246E0
3.789643568E0,5.277450085E-1,-2.085001945E0,8.501400054E-2,2.152434735E0
3.794656568E0,5.643900037E-1,-2.108227015E0,1.114849970E-1,2.185311448E0
3.799669414E0,5.461540222E-1,-2.144382954E0,8.333600312E-2,2.214409031E0
3.804682327E0,4.459289908E-1,-2.206893921E0,1.094779968E-1,2.254155912E0
3.809695020E0,3.863970041E-1,-2.268043995E0,1.216999963E-1,2.303939473E0
3.814707933E0,3.945530057E-1,-2.327454090E0,1.063050032E-1,2.363052130E0
3.819720779E0,4.155589938E-1,-2.371246099E0,2.130820006E-1,2.416795664E0
3.824733745E0,4.359749854E-1,-2.426811934E0,4.284439981E-1,2.502609560E0
3.829746668E0,4.424830079E-1,-2.453324080E0,7.523949742E-1,2.603975508E0
3.834759341E0,4.491389990E-1,-2.478717089E0,1.062495947E0,2.733982788E0
3.839772187E0,4.151810110E-1,-2.489744902E0,1.345211029E0,2.860209373E0
3.844785116E0,3.406600058E-1,-2.473790884E0,1.559900999E0,2.944313452E0
3.849798039E0,2.794570029E-1,-2.390652895E0,1.774837971E0,2.990546322E0
3.854810967E0,1.493790001E-1,-2.282146931E0,1.922144055E0,2.987498363E0
3.859823659E0,1.847299933E-2,-2.175896883E0,2.029139996E0,2.975277738E0
3.864836490E0,-9.883199632E-2,-2.100219011E0,2.136873960E0,2.997818871E0
3.869849490E0,-1.889030039E-1,-1.932845950E0,2.013856888E0,2.797712883E0
3.874862336E0,-2.248740047E-1,-1.783311963E0,1.823670983E0,2.560575273E0
3.879875015E0,-2.067580074E-1,-1.637966037E0,1.593552947E0,2.294578961E0
3.884887938E0,-1.611929983E-1,-1.496294022E0,1.228024960E0,1.942401679E0
3.889900832E0,-8.837000281E-2,-1.343713045E0,7.268959880E-1,1.530278335E0
3.894913678E0,-2.955799922E-2,-1.179116964E0,2.534019947E-1,1.206400871E0
3.899926635E0,1.519600023E-2,-1.015231013E0,-1.517840028E-1,1.026627153E0
3.904939327E0,3.253300115E-2,-8.645290136E-1,-5.297859907E-1,1.014466366E0
3.909952246E0,4.946700111E-2,-7.539110184E-1,-8.806689978E-1,1.160347660E0
3.914965092E0,6.588400155E-2,-6.418539882E-1,-1.150096059E0,1.318725972E0
3.919978005E0,6.797499955E-2,-5.416569710E-1,-1.365368962E0,1.470457506E0
3.924990928E0,2.888599969E-2,-4.666369855E-1,-1.458485007E0,1.531588389E0
3.930003851E0,3.209999995E-3,-3.896420002E-1,-1.483911991E0,1.534218364E0
3.935016774E0,4.589200020E-2,-3.107529879E-1,-1.428043962E0,1.462184342E0
3.940029471E0,6.174800172E-2,-2.572019994E-1,-1.359001040E0,1.384503345E0
3.945042318E0,6.492900103E-2,-2.153220028E-1,-1.235965014E0,1.256259867E0
3.950055246E0,8.250100166E-2,-2.126629949E-1,-1.099720955E0,1.123128730E0
3.955067938E0,1.415449977E-1,-2.356400043E-1,-9.638710022E-1,1.002301605E0
3.960080851E0,1.737029999E-1,-2.572920024E-1,-8.010929823E-1,8.591401940E-1
3.965093774E0,2.472230047E-1,-2.915750146E-1,-6.249390244E-1,7.325871876E-1
3.970106620E0,3.481909931E-1,-3.112010062E-1,-4.490210116E-1,6.478448138E-1
3.975119533E0,4.494229853E-1,-3.165870011E-1,-2.732479870E-1,6.138996754E-1
3.980132226E0,5.101240277E-1,-3.215889931E-1,-8.394800127E-2,6.088458516E-1
3.985145087E0,5.442569852E-1,-3.539960086E-1,6.448899955E-2,6.524474470E-1
3.990158087E0,5.652580261E-1,-4.001680017E-1,1.856960058E-1,7.170314304E-1
3.995170923E0,5.732089877E-1,-4.738599956E-1,2.660720050E-1,7.898773012E-1
4.000183846E0,5.677440166E-1,-5.343589783E-1,3.192949891E-1,8.425093923E-1
4.005196793E0,5.492740273E-1,-5.682079792E-1,3.862310052E-1,8.796230182E-1
4.010209486E0,5.857520103E-1,-5.616030097E-1,4.396069944E-1,9.229071826E-1
4.015222409E0,6.363340020E-1,-5.963320136E-1,4.521949887E-1,9.823508235E-1
4.020235255E0,6.190699935E-1,-6.587820053E-1,4.921129942E-1,1.029279644E0
4.025248169E0,6.022179723E-1,-7.490800023E-1,5.457550287E-1,1.105276385E0
4.030260861E0,5.584279895E-1,-8.126170039E-1,5.586190224E-1,1.133244646E0
4.035273798E0,5.011699796E-1,-8.221399784E-1,5.715749860E-1,1.119724724E0
4.040286721E0,4.849030077E-1,-7.910040021E-1,5.981870294E-1,1.103922996E0
4.045299549E0,4.552670121E-1,-7.736639977E-1,6.111980081E-1,1.085995874E0
4.050312472E0,3.984149992E-1,-7.700489759E-1,6.378530264E-1,1.076367233E0
4.055325183E0,2.871469855E-1,-7.937669754E-1,6.645240188E-1,1.074295850E0
4.060338106E0,1.897680014E-1,-8.175799847E-1,6.775760055E-1,1.078683535E0
4.065351029E0,9.279199690E-2,-8.008739948E-1,6.634290218E-1,1.044101325E0
4.070363875E0,2.340400033E-2,-7.435650229E-1,6.493120193E-1,9.874425497E-1
4.075376807E0,-3.198799863E-2,-7.140169740E-1,6.216549873E-1,9.472583568E-1
4.080389730E0,-1.004749984E-1,-6.712419987E-1,6.076599956E-1,9.109949046E-1
4.085402447E0,-1.413020045E-1,-6.426709890E-1,4.984149933E-1,8.254754764E-1
4.090415293E0,-1.955060065E-1,-6.282079816E-1,4.028730094E-1,7.714755527E-1
4.095428221E0,-2.631959915E-1,-6.277710199E-1,2.801649868E-1,7.361120861E-1
4.100441144E0,-2.899810076E-1,-6.001229882E-1,1.302199960E-1,6.791125335E-1
4.105453846E0,-3.169359863E-1,-5.450519919E-1,3.472999856E-2,6.314556723E-1
4.110467000E0,-3.168770075E-1,-5.033370256E-1,-6.079600006E-2,5.978757002E-1
4.115479612E0,-3.033399880E-1,-4.477350116E-1,-1.155060008E-1,5.530130425E-1
4.120492535E0,-3.035379946E-1,-4.599629939E-1,-1.430249959E-1,5.693482409E-1
4.125505458E0,-3.446269929E-1,-4.584659934E-1,-1.569419950E-1,5.946340229E-1
4.130518150E0,-3.719719946E-1,-4.705469906E-1,-1.708779931E-1,6.236801454E-1
4.135531077E0,-3.308190107E-1,-4.008719921E-1,-2.120919973E-1,5.613578068E-1
4.140544000E0,-2.755540013E-1,-3.036859930E-1,-2.125409991E-1,4.618753796E-1
4.145556847E0,-2.332780063E-1,-2.198739946E-1,-1.994690001E-1,3.775593778E-1
4.150569770E0,-1.767909974E-1,-1.765969992E-1,-2.137520015E-1,3.288335065E-1
4.155582462E0,-1.472170055E-1,-2.148229927E-1,-2.417249978E-1,3.553206150E-1
4.160595385E0,-1.448179930E-1,-2.391380072E-1,-2.289019972E-1,3.613244552E-1
4.165608227E0,-1.015509963E-1,-2.086109966E-1,-2.025330067E-1,3.079785245E-1
4.170621150E0,-3.868999891E-3,-1.777759939E-1,-2.034620047E-1,2.702148414E-1
4.175634077E0,7.976499945E-2,-1.194360033E-1,-2.044090033E-1,2.498208451E-1
4.180646770E0,1.354490072E-1,-1.154230013E-1,-1.372320056E-1,2.247254461E-1
4.185659938E0,1.904280037E-1,-9.785000235E-2,-5.636499822E-2,2.213920969E-1
4.190672553E0,2.413260043E-1,-1.132680029E-1,1.063899975E-2,2.667978057E-1
4.195685535E0,2.662529945E-1,-1.503379941E-1,3.728400171E-2,3.080296517E-1
4.200698381E0,3.058530092E-1,-1.616519988E-1,6.415200233E-2,3.518421682E-1
4.205711332E0,3.591420054E-1,-1.058550030E-1,9.121900052E-2,3.853688724E-1
4.210724025E0,4.397659898E-1,3.636999987E-3,5.033599958E-2,4.426523087E-1
4.215736948E0,5.068719983E-1,7.159200311E-2,-1.765600033E-2,5.122073525E-1
4.220749798E0,5.195879936E-1,1.118230000E-1,-8.555699885E-2,5.383270999E-1
4.225762721E0,5.324699879E-1,1.109199971E-1,-1.125539988E-1,5.554241050E-1
4.230775381E0,5.321149826E-1,9.624399990E-2,-1.667910069E-1,5.658873582E-1
4.235788304E0,5.049520135E-1,9.508900344E-2,-2.619040012E-1,5.767253769E-1
4.240801140E0,4.781059921E-1,8.035500348E-2,-3.570489883E-1,6.021015249E-1
4.245814140E0,4.651390016E-1,9.313800186E-2,-4.250319898E-1,6.369310564E-1
4.250826746E0,4.663060009E-1,1.337819993E-1,-4.931820035E-1,6.917856593E-1
4.255839900E0,4.680770040E-1,1.616480052E-1,-5.479320288E-1,7.385497054E-1
4.260852583E0,4.568139911E-1,1.632840037E-1,-5.348320007E-1,7.220706041E-1
4.265865506E0,4.186939895E-1,1.385969967E-1,-5.219500065E-1,6.833341742E-1
4.270878429E0,3.671979904E-1,8.750099689E-2,-4.820150137E-1,6.122330129E-1
4.275891289E0,3.701219857E-1,7.797200233E-2,-4.558359981E-1,5.923313047E-1
4.280904212E0,3.590889871E-1,6.894999743E-2,-3.616299927E-1,5.142715766E-1
4.285916905E0,3.479000032E-1,1.010449976E-1,-2.266010046E-1,4.273084589E-1
4.290929828E0,3.011249900E-1,1.233000010E-1,-1.150939986E-1,3.451460247E-1
4.295942669E0,2.879999876E-1,1.268289983E-1,-4.774799943E-2,3.182914688E-1
4.300955361E0,2.633860111E-1,8.976999670E-2,5.754000042E-3,2.783234659E-1
4.305968284E0,2.255070060E-1,6.568399817E-2,1.850100048E-2,2.356057818E-1
4.310981208E0,2.134030014E-1,7.649599761E-2,-2.083100006E-2,2.276541439E-1
4.315994131E0,2.149689943E-1,1.188400015E-1,-4.849600047E-2,2.503726753E-1
4.321007054E0,2.318409979E-1,1.477569938E-1,-4.909399897E-2,2.792715493E-1
4.326019900E0,2.354000062E-1,1.765139997E-1,-6.330399960E-2,3.009613785E-1
4.331032809E0,2.100850046E-1,1.525969952E-1,-1.011470035E-1,2.786615661E-1
4.336045501E0,1.985210031E-1,1.119500026E-1,-1.285959929E-1,2.616874494E-1
4.341058342E0,2.430229932E-1,1.407420039E-1,-1.019620001E-1,2.987720475E-1
4.346071342E0,2.876319885E-1,1.832669973E-1,-8.897700161E-2,3.524710768E-1
4.351084194E0,2.977460027E-1,2.239809930E-1,-3.031899966E-2,3.738173472E-1
4.356097117E0,3.270219862E-1,2.649660110E-1,-3.269999987E-3,4.209050480E-1
4.361109789E0,3.856360018E-1,2.801339924E-1,-3.918999806E-3,4.766608209E-1
4.366122635E0,4.308190048E-1,3.090800047E-1,2.262599953E-2,5.307046260E-1
4.371135558E0,4.200080037E-1,3.178099990E-1,5.564599857E-2,5.296285451E-1
4.376148486E0,4.484890103E-1,3.448710144E-1,1.100620031E-1,5.763610444E-1
4.381161179E0,5.067380071E-1,4.145109951E-1,1.639170051E-1,6.748863293E-1
4.386174102E0,5.785920024E-1,4.569160044E-1,2.041530013E-1,7.649963322E-1
4.391187025E0,5.981389880E-1,4.854030013E-1,2.941769958E-1,8.245765140E-1
4.396199939E0,6.382430196E-1,5.239620209E-1,3.764440119E-1,9.075243498E-1
4.401212785E0,6.824790239E-1,5.784770250E-1,4.170100093E-1,9.870717474E-1
4.406225477E0,7.270299792E-1,6.187890172E-1,4.168100059E-1,1.041730781E0
4.411238425E0,7.446539998E-1,6.720520258E-1,4.167250097E-1,1.086196685E0
4.416251271E0,7.216590047E-1,7.111039758E-1,4.167450070E-1,1.095507638E0
4.421264271E0,7.262120247E-1,7.495599985E-1,4.441080093E-1,1.134220446E0
4.426277117E0,7.040780187E-1,7.872989774E-1,4.579559863E-1,1.151212066E0
4.431289809E0,6.960930228E-1,8.515210152E-1,4.719249904E-1,1.196806890E0
4.436302717E0,7.023749948E-1,9.285089970E-1,4.996449947E-1,1.266927272E0
4.441315563E0,6.955100298E-1,9.775639772E-1,4.593780041E-1,1.284676489E0
4.446328487E0,6.889359951E-1,1.012300968E0,4.056220055E-1,1.289928396E0
4.451341410E0,7.095909715E-1,1.005704999E0,3.519769907E-1,1.280175650E0
4.456354303E0,7.163890004E-1,1.012254000E0,2.984620035E-1,1.275519866E0
4.461367226E0,7.497180104E-1,1.018532038E0,2.723110020E-1,1.293691574E0
4.466379923E0,7.554000020E-1,1.010786057E0,2.462880015E-1,1.285680907E0
4.471392769E0,7.879740000E-1,1.030037999E0,2.203530073E-1,1.315460662E0
4.476405716E0,8.203819990E-1,1.049110055E0,2.081010044E-1,1.347948278E0
4.481418409E0,8.797590137E-1,1.054631948E0,2.094859928E-1,1.389283574E0
4.486431332E0,9.118599892E-1,1.032847047E0,1.972749978E-1,1.391825811E0
4.491444178E0,9.164329767E-1,9.838370085E-1,2.123340070E-1,1.361201818E0
4.496457101E0,9.207850099E-1,9.483870268E-1,2.410520017E-1,1.343647668E0
4.501470010E0,8.978009820E-1,9.403179884E-1,2.833749950E-1,1.330618619E0
4.506482702E0,8.885880113E-1,9.458439946E-1,2.712199986E-1,1.325809113E0
4.511495885E0,8.658310175E-1,9.242640138E-1,2.726610005E-1,1.295481123E0
4.516508501E0,8.433430195E-1,9.163699746E-1,3.013159931E-1,1.281308982E0
4.521521505E0,8.345490098E-1,8.679540157E-1,3.435179889E-1,1.252126524E0
4.526534351E0,7.986329794E-1,8.333709836E-1,3.720529974E-1,1.212742868E0
4.531547284E0,7.052019835E-1,7.200300097E-1,4.805800021E-1,1.116561772E0
4.536560207E0,6.644350290E-1,6.537560225E-1,5.241580009E-1,1.069398174E0
4.541572904E0,6.148769855E-1,5.916230083E-1,5.255600214E-1,1.002150102E0
4.546585751E0,5.518149734E-1,5.701590180E-1,5.678669810E-1,9.757325345E-1
4.551598683E0,4.618459940E-1,5.125520229E-1,6.311519742E-1,9.350743890E-1
4.556611375E0,3.547559977E-1,4.742859900E-1,6.881049871E-1,9.079027985E-1
4.561624303E0,2.639389932E-1,4.381319880E-1,7.716029882E-1,9.257400297E-1
4.566637149E0,1.730599999E-1,3.740499914E-1,8.416619897E-1,9.371542373E-1
4.571650164E0,1.228820011E-1,3.228769898E-1,8.438140154E-1,9.117958266E-1
4.576663010E0,5.900400132E-2,2.708429992E-1,8.325750232E-1,8.775070208E-1
4.581675914E0,4.943000153E-2,2.045709938E-1,8.215150237E-1,8.480445452E-1
4.586688606E0,-1.028000028E-3,1.373530030E-1,7.834650278E-1,7.954145800E-1
4.591701520E0,-6.533899903E-2,9.645599872E-2,7.456790209E-1,7.547252127E-1
4.596714443E0,-1.297950000E-1,6.822399795E-2,6.945409775E-1,7.098509881E-1
4.601727284E0,-1.537529975E-1,3.945200145E-2,5.754889846E-1,5.969790750E-1
4.606740207E0,-2.190250009E-1,9.770000353E-3,4.567260146E-1,5.066222028E-1
4.611752909E0,-2.848879993E-1,6.577999797E-3,3.518460095E-1,4.527693194E-1
4.616765832E0,-3.513669968E-1,4.335699975E-2,2.064100057E-1,4.098093292E-1
4.621778678E0,-4.049359858E-1,7.978600264E-2,7.477200031E-2,4.194398775E-1
4.626791601E0,-4.723919928E-1,1.154680029E-1,-5.661600083E-2,4.895839316E-1
4.631804529E0,-5.533530116E-1,1.235330030E-1,-1.878750026E-1,5.972913652E-1
4.636817221E0,-6.475189924E-1,1.176929995E-1,-3.871490061E-1,7.635553946E-1
4.641830058E0,-6.867539883E-1,8.524200320E-2,-6.001999974E-1,9.160443638E-1
4.646843058E0,-6.711819768E-1,8.076000214E-2,-8.406720161E-1,1.078766361E0
4.651855909E0,-7.644519806E-1,1.461589932E-1,-1.095214963E0,1.343594097E0
4.656868832E0,-9.258859754E-1,1.593369991E-1,-1.323096991E0,1.622725721E0
4.661881529E0,-1.223878980E0,9.424500167E-2,-1.429290056E0,1.884046693E0
4.666894452E0,-1.535786986E0,-4.895399883E-2,-1.468335986E0,2.125334969E0
4.671907360E0,-1.807278037E0,-2.286870033E-1,-1.454051018E0,2.330840194E0
4.676920206E0,-1.848209977E0,-4.714600146E-1,-1.400220037E0,2.366172186E0
4.681933130E0,-1.672961950E0,-8.040199876E-1,-1.225196958E0,2.224040785E0
4.686945822E0,-1.268190980E0,-1.144212961E0,-8.745809793E-1,1.918964187E0
4.691958736E0,-7.697910070E-1,-1.478363037E0,-3.892430067E-1,1.711620747E0
4.696971582E0,-3.408280015E-1,-1.793133020E0,2.853929996E-1,1.847414117E0
4.701984495E0,7.415399700E-2,-2.035831928E0,9.454709888E-1,2.245890880E0
4.706997418E0,4.477509856E-1,-2.180161953E0,1.618530035E0,2.751949593E0
4.712010102E0,7.527319789E-1,-2.255630016E0,2.346040964E0,3.340416203E0
4.717023255E0,8.663480282E-1,-2.331890106E0,3.019452095E0,3.912206708E0
4.722035957E0,8.846110106E-1,-2.343688011E0,3.653036118E0,4.429456288E0
4.727048803E0,8.624799848E-1,-2.332796097E0,4.110735893E0,4.804576874E0
4.732061726E0,8.004779816E-1,-2.328185081E0,4.324794769E0,4.976450599E0
4.737074418E0,7.532690167E-1,-2.357851982E0,4.281717777E0,4.945703924E0
4.742087360E0,7.346299887E-1,-2.395473003E0,3.954444885E0,4.681410736E0
4.747100284E0,7.305889726E-1,-2.481117964E0,3.492630005E0,4.346052341E0
4.752113140E0,7.824069858E-1,-2.464236975E0,2.923310041E0,3.902610172E0
4.757126063E0,8.492400050E-1,-2.425575972E0,2.205403090E0,3.386507075E0
4.762138779E0,8.630160093E-1,-2.377073050E0,1.529204011E0,2.955289803E0
4.767151702E0,7.965949774E-1,-2.372323990E0,9.353700280E-1,2.671591616E0
4.772164548E0,6.093040109E-1,-2.410104036E0,4.235990047E-1,2.521763066E0
4.777177538E0,4.102919996E-1,-2.421472073E0,-8.804900199E-2,2.457563661E0
4.782190385E0,2.535209954E-1,-2.309387922E0,-5.863360167E-1,2.396108386E0
4.787203338E0,9.777399898E-2,-2.169056892E0,-9.895560145E-1,2.386124193E0
4.792216030E0,-9.807699919E-2,-2.067868948E0,-1.338742018E0,2.465346076E0
4.797228943E0,-2.931889892E-1,-2.005465031E0,-1.633993983E0,2.603418159E0
4.802241789E0,-5.150889754E-1,-1.980741978E0,-1.861981034E0,2.766880700E0
4.807254698E0,-7.091339827E-1,-1.939478040E0,-1.995416999E0,2.871608447E0
4.812267391E0,-8.481569886E-1,-1.949409008E0,-2.034408092E0,2.942512879E0
4.817280304E0,-9.457100034E-1,-1.942415953E0,-2.033453941E0,2.966864014E0
4.822293227E0,-1.070405960E0,-1.931784987E0,-1.924512029E0,2.929387087E0
4.827306073E0,-1.222131968E0,-1.917868018E0,-1.707497954E0,2.843830787E0
4.832319001E0,-1.387750030E0,-1.914397955E0,-1.450448036E0,2.773908647E0
4.837331924E0,-1.526499987E0,-1.935567021E0,-1.139577031E0,2.715742571E0
4.842344616E0,-1.680019975E0,-1.954735041E0,-8.155310154E-1,2.703432454E0
4.847357540E0,-1.793831944E0,-1.972267985E0,-4.918279946E-1,2.711008821E0
4.852370458E0,-1.841110945E0,-1.975119948E0,-2.227679938E-1,2.709319822E0
4.857383304E0,-1.808009982E0,-2.018008947E0,7.341799885E-2,2.710470514E0
4.862396208E0,-1.680909991E0,-2.033432007E0,3.015480042E-1,2.655416224E0
4.867408900E0,-1.595512986E0,-2.062182903E0,5.296729803E-1,2.660603969E0
4.872421852E0,-1.524330974E0,-2.145378113E0,6.625030041E-1,2.713879584E0
4.877434698E0,-1.453541994E0,-2.255913019E0,8.362609744E-1,2.810918052E0
4.882447636E0,-1.355442047E0,-2.326117039E0,9.693089724E-1,2.861398872E0
4.887460559E0,-1.256582022E0,-2.301166058E0,1.075132012E0,2.833773535E0
4.892473251E0,-1.197363973E0,-2.262564898E0,1.112786055E0,2.791267311E0
4.897486164E0,-1.150465012E0,-2.291874886E0,1.136708975E0,2.805061056E0
4.902499010E0,-1.156949997E0,-2.321083069E0,1.187801003E0,2.852513126E0
4.907511703E0,-1.162055969E0,-2.336050034E0,1.252295017E0,2.894088223E0
4.912524856E0,-1.084334970E0,-2.268589973E0,1.330193996E0,2.844591159E0
4.917537525E0,-9.922519922E-1,-2.200612068E0,1.421569943E0,2.801449374E0
4.922550448E0,-9.000419974E-1,-2.146467924E0,1.513023973E0,2.776083876E0
4.927563371E0,-8.350409865E-1,-2.147113085E0,1.604583979E0,2.807503837E0
4.932576232E0,-7.567809820E-1,-2.135072947E0,1.641942024E0,2.797718276E0
4.937589155E0,-6.380980015E-1,-2.042371035E0,1.625126958E0,2.686910146E0
4.942601842E0,-5.067890286E-1,-1.937754989E0,1.622419953E0,2.577591128E0
4.947614766E0,-3.899939954E-1,-1.807441950E0,1.524806023E0,2.396659159E0
4.952627626E0,-2.742440104E-1,-1.705878019E0,1.386759996E0,2.215475769E0
4.957640549E0,-1.870590001E-1,-1.646708012E0,1.235535979E0,2.067168958E0
4.962653458E0,-1.288280040E-1,-1.616350055E0,1.071159005E0,1.943338820E0
4.967666150E0,-5.851300061E-2,-1.587373972E0,8.663290143E-1,1.809338514E0
4.972679312E0,1.036600024E-2,-1.546105981E0,6.755080223E-1,1.687264723E0
4.977691927E0,1.189519987E-1,-1.465018988E0,4.713740051E-1,1.543574962E0
4.982704875E0,2.268590033E-1,-1.384685040E0,2.810730040E-1,1.431020510E0
4.987717798E0,3.480390012E-1,-1.277510047E0,7.726500183E-2,1.326323093E0
4.992730500E0,4.281280041E-1,-1.184092999E0,-8.563499898E-2,1.262023443E0
4.997743423E0,4.535929859E-1,-1.131623983E0,-2.485069931E-1,1.244216686E0
5.002756351E0,4.516530037E-1,-1.092700958E0,-3.705289960E-1,1.239063177E0
5.007769197E0,4.221450090E-1,-1.053555965E0,-5.062050223E-1,1.242751023E0
5.012782105E0,4.194340110E-1,-9.868199825E-1,-6.147019863E-1,1.235959991E0
5.017794798E0,4.296459854E-1,-8.922669888E-1,-7.233039737E-1,1.226337918E0
5.022807635E0,4.393270016E-1,-8.241829872E-1,-7.911999822E-1,1.224043799E0
5.027820558E0,4.211730063E-1,-7.689219713E-1,-8.047749996E-1,1.190080039E0
5.032833476E0,3.889499903E-1,-7.672820091E-1,-7.912920117E-1,1.168822837E0
5.037846399E0,3.702200055E-1,-7.513179779E-1,-7.507269979E-1,1.124781126E0
5.042859312E0,3.789199889E-1,-7.075669765E-1,-6.830589771E-1,1.053945421E0
5.047872235E0,3.061400056E-1,-7.178159952E-1,-6.018980145E-1,9.855266237E-1
5.052884924E0,2.337960005E-1,-7.277439833E-1,-4.935910106E-1,9.098922797E-1
5.057897770E0,1.211960018E-1,-7.644799948E-1,-3.854170144E-1,8.646758978E-1
5.062910684E0,9.324000217E-3,-7.873950005E-1,-2.909489870E-1,8.394814690E-1
5.067923376E0,-1.019459963E-1,-8.098369837E-1,-1.966219991E-1,8.395767605E-1
5.072936275E0,-1.854940057E-1,-8.181560040E-1,-1.160600036E-1,8.469103833E-1
5.077949198E0,-2.959829867E-1,-8.261529803E-1,5.272999872E-3,8.775890153E-1
5.082962074E0,-4.061239958E-1,-8.477200270E-1,1.265799999E-1,9.484663623E-1
5.087974997E0,-5.022130013E-1,-8.557209969E-1,2.342589945E-1,1.019486930E0
5.092987674E0,-5.433260202E-1,-8.367819786E-1,3.147439957E-1,1.046169693E0
5.098000520E0,-5.975880027E-1,-8.182119727E-1,4.089129865E-1,1.092607928E0
5.103013530E0,-5.831239820E-1,-8.410949707E-1,4.623270035E-1,1.123040777E0
5.108026376E0,-6.497550011E-1,-8.100079894E-1,4.613470137E-1,1.136281467E0
5.113039371E0,-7.432219982E-1,-8.338119984E-1,4.740610123E-1,1.213406457E0
5.118052217E0,-7.955650091E-1,-8.715530038E-1,4.868380129E-1,1.276534204E0
5.123065135E0,-8.204079866E-1,-8.414250016E-1,4.860349894E-1,1.271729259E0
5.128077827E0,-8.178369999E-1,-7.976239920E-1,4.715920091E-1,1.235904695E0
5.133090659E0,-8.424270153E-1,-7.945849895E-1,4.843640029E-1,1.255251795E0
5.138103582E0,-8.532980084E-1,-8.186439872E-1,5.243390203E-1,1.293532712E0
5.143116264E0,-8.232849836E-1,-8.563010097E-1,5.643110275E-1,1.315103235E0
5.148129188E0,-7.660369873E-1,-8.803250194E-1,5.770409703E-1,1.301829899E0
5.153142106E0,-7.090330124E-1,-9.183160067E-1,5.898669958E-1,1.301528015E0
5.158154952E0,-6.387550235E-1,-9.297360182E-1,5.892450213E-1,1.272645567E0
5.163167861E0,-6.096959710E-1,-9.829879999E-1,5.616260171E-1,1.285853167E0
5.168180553E0,-5.535389781E-1,-9.962819815E-1,5.069820285E-1,1.247402888E0
5.173193471E0,-4.837200046E-1,-9.694020152E-1,3.980120122E-1,1.154183205E0
5.178206394E0,-3.731690049E-1,-9.021499753E-1,2.619220018E-1,1.010808003E0
5.183219270E0,-2.765280008E-1,-8.758980036E-1,1.803590059E-1,9.360525727E-1
5.188232270E0,-2.073560059E-1,-8.769050241E-1,1.124349982E-1,9.080751969E-1
5.193245121E0,-1.521019936E-1,-8.778219819E-1,3.088399954E-2,8.914371934E-1
5.198257813E0,-7.013200223E-2,-8.923109770E-1,-3.703000024E-2,8.958284424E-1
5.203270726E0,-1.620299928E-2,-9.070069790E-1,-6.399500370E-2,9.094061566E-1
5.208283572E0,9.693999775E-3,-9.084740281E-1,-2.272499911E-2,9.088099136E-1
5.213296486E0,7.609400153E-2,-8.968080282E-1,1.867499948E-2,9.002242455E-1
5.218309179E0,1.832289994E-1,-8.448500037E-1,-2.150700055E-2,8.647583166E-1
5.223322111E0,2.630009949E-1,-8.072180152E-1,-8.875899762E-2,8.536091653E-1
5.228335034E0,3.015420139E-1,-7.839919925E-1,-1.421879977E-1,8.519321904E-1
5.233347875E0,2.851350009E-1,-7.615399957E-1,-2.362709939E-1,8.467993365E-1
5.238360875E0,2.816300094E-1,-6.990879774E-1,-3.573519886E-1,8.341102482E-1
5.243373726E0,2.366960049E-1,-6.647390127E-1,-4.373350143E-1,8.301595440E-1
5.248386649E0,1.915549934E-1,-6.178159714E-1,-5.306739807E-1,8.366628734E-1
5.253399356E0,1.466269940E-1,-5.443890095E-1,-6.647049785E-1,8.716028783E-1
5.258412202E0,1.157509983E-1,-4.441429973E-1,-8.258910179E-1,9.448583328E-1
5.263425198E0,8.541700244E-2,-3.845779896E-1,-9.871399999E-1,1.062846025E0
5.268438044E0,-1.278099976E-2,-3.927440047E-1,-1.134860039E0,1.200965659E0
5.273450957E0,-1.379300058E-1,-3.862679899E-1,-1.241973042E0,1.307946744E0
5.278463649E0,-2.355329990E-1,-3.648230135E-1,-1.281317949E0,1.352903290E0
5.283476502E0,-3.327899873E-1,-3.414640129E-1,-1.321138024E0,1.404547090E0
5.288489425E0,-4.434430003E-1,-3.161210120E-1,-1.320585966E0,1.428468229E0
5.293502117E0,-5.403900146E-1,-3.020580113E-1,-1.225260019E0,1.372779125E0
5.298515275E0,-6.371120214E-1,-2.855759859E-1,-1.076045990E0,1.282708207E0
5.303527967E0,-7.744669914E-1,-2.940090001E-1,-8.729199767E-1,1.203424156E0
5.308540890E0,-8.707839847E-1,-3.005340099E-1,-6.566370130E-1,1.131263721E0
5.313553813E0,-9.942229986E-1,-3.192330003E-1,-3.998380005E-1,1.118150037E0
5.318566660E0,-1.104055047E0,-3.641510010E-1,-1.568930000E-1,1.173097998E0
5.323579583E0,-1.213749051E0,-3.815160096E-1,4.511899874E-2,1.273097384E0
5.328592285E0,-1.323305964E0,-3.986139894E-1,2.606909871E-1,1.406410886E0
5.333605131E0,-1.350581050E0,-3.747200072E-1,4.762139916E-1,1.480291871E0
5.338618073E0,-1.390490055E0,-3.506669998E-1,6.780329943E-1,1.586240423E0
5.343630996E0,-1.442911029E0,-3.404330015E-1,8.117470145E-1,1.690213028E0
5.348643890E0,-1.507833958E0,-3.027920127E-1,9.317499995E-1,1.798166930E0
5.353656583E0,-1.530958056E0,-2.924300134E-1,1.010861039E0,1.857737313E0
5.358669458E0,-1.539638042E0,-2.819280028E-1,1.076287031E0,1.899569023E0
5.363682381E0,-1.493528008E0,-2.580949962E-1,1.141777992E0,1.897602678E0
5.368695304E0,-1.406520009E0,-2.344699949E-1,1.207326055E0,1.868397955E0
5.373708227E0,-1.292580962E0,-2.114260048E-1,1.259418011E0,1.817030607E0
5.378720919E0,-1.151785970E0,-1.892729998E-1,1.284499049E0,1.735618909E0
5.383733843E0,-9.844769835E-1,-1.821289957E-1,1.296319008E0,1.637928226E0
5.388746766E0,-8.178690076E-1,-1.492709965E-1,1.254040956E0,1.504596379E0
5.393759612E0,-6.522399783E-1,-1.318520010E-1,1.198601007E0,1.370928997E0
5.398772535E0,-5.286129713E-1,-1.161919981E-1,1.102751017E0,1.228410379E0
5.403785245E0,-3.924680054E-1,-8.873099834E-2,9.665020108E-1,1.046914735E0
5.408798168E0,-2.846420109E-1,-7.623399794E-2,8.169879913E-1,8.685056562E-1
5.413811000E0,-1.778320074E-1,-2.375099994E-2,6.677200198E-1,6.914031803E-1
5.418823924E0,-8.560000360E-2,1.472899970E-2,5.322089791E-1,5.392501289E-1
5.423836847E0,-7.608999964E-3,2.615600079E-2,4.511739910E-1,4.519955789E-1
5.428849535E0,6.993599981E-2,6.528700143E-2,3.836809993E-1,3.954295713E-1
5.433862458E0,1.333339959E-1,7.797200233E-2,3.432829976E-1,3.764316725E-1
5.438875304E0,1.824560016E-1,7.784999907E-2,2.891219854E-1,3.506313411E-1
5.443888227E0,1.900970042E-1,6.494999677E-2,2.892929912E-1,3.522013739E-1
5.448901163E0,2.244299948E-1,8.015900105E-2,3.574059904E-1,4.295734279E-1
5.453913856E0,2.725049853E-1,1.368740052E-1,4.934760034E-1,5.800965663E-1
5.458926779E0,3.210360110E-1,1.666720062E-1,6.158319712E-1,7.142077392E-1
5.463939702E0,3.431009948E-1,1.690849960E-1,7.654209733E-1,8.556735913E-1
5.468952548E0,3.251889944E-1,1.981000006E-1,8.878610134E-1,9.660686681E-1
5.473965486E0,3.219850063E-1,2.261310071E-1,9.559760094E-1,1.033779332E0
5.478978178E0,2.787680030E-1,2.666380107E-1,9.425730109E-1,1.018455355E0
5.483991082E0,1.952330023E-1,2.923400104E-1,8.885390162E-1,9.555522959E-1
5.489003928E0,1.255819947E-1,3.442049921E-1,8.074910045E-1,8.867297425E-1
5.494016856E0,5.608300120E-2,3.814589977E-1,6.994119883E-1,7.986447266E-1
5.499029779E0,-4.073899984E-2,4.043009877E-1,6.051369905E-1,7.289099616E-1
5.504042707E0,-1.374749988E-1,4.267039895E-1,5.381990075E-1,7.004525977E-1
5.509055399E0,-2.341160029E-1,4.624040127E-1,4.713290036E-1,7.005560673E-1
5.514068308E0,-3.169110119E-1,4.844779968E-1,4.316909909E-1,7.221555446E-1
5.519081155E0,-3.858239949E-1,5.067110062E-1,4.192439914E-1,7.624839166E-1
5.524094092E0,-4.543479979E-1,5.158399940E-1,4.475220144E-1,8.202432297E-1
5.529106784E0,-5.361210108E-1,5.389869809E-1,4.756909907E-1,8.967801416E-1
5.534119679E0,-5.901280046E-1,5.488539934E-1,5.582330227E-1,9.803651745E-1
5.539132602E0,-6.844130158E-1,5.316450000E-1,6.407039762E-1,1.077761183E0
5.544145458E0,-7.508580089E-1,5.280939937E-1,7.231330276E-1,1.168585637E0
5.549158381E0,-7.760419846E-1,5.241860151E-1,7.919999957E-1,1.226489353E0
5.554171074E0,-8.146589994E-1,5.060610175E-1,8.609939814E-1,1.288828024E0
5.559183997E0,-8.397489786E-1,5.006179810E-1,9.029690027E-1,1.330845494E0
5.564196920E0,-8.650280237E-1,4.806250036E-1,9.724149704E-1,1.387394951E0
5.569209843E0,-8.904229999E-1,4.730600119E-1,1.001284957E0,1.420989253E0
5.574222766E0,-8.886039853E-1,5.052260160E-1,1.016803980E0,1.441790797E0
5.579235612E0,-8.732900023E-1,5.226969719E-1,1.018967986E0,1.440188637E0
5.584248309E0,-8.445789814E-1,5.530229807E-1,9.940940142E-1,1.416817201E0
5.589261232E0,-8.296999931E-1,5.415809751E-1,9.966980219E-1,1.405389262E0
5.594274069E0,-8.152530193E-1,5.565519929E-1,9.722959995E-1,1.385549392E0
5.599286992E0,-8.149160147E-1,5.705350041E-1,9.073150158E-1,1.346409611E0
5.604299669E0,-8.423830271E-1,6.248019934E-1,8.289030194E-1,1.336812220E0
5.609312592E0,-8.567950130E-1,7.054529786E-1,7.235109806E-1,1.324850836E0
5.614325496E0,-8.988929987E-1,7.582529783E-1,5.774549842E-1,1.310118491E0
5.619338343E0,-9.139559865E-1,7.833129764E-1,4.315589964E-1,1.278725120E0
5.624351343E0,-9.425209761E-1,7.679510117E-1,2.855769992E-1,1.248858987E0
5.629363958E0,-9.024860263E-1,7.531279922E-1,1.258389950E-1,1.182166762E0
5.634377102E0,-7.939180136E-1,6.987310052E-1,-2.060000040E-2,1.057806783E0
5.639389794E0,-6.986110210E-1,6.187239885E-1,-9.934700280E-2,9.384809852E-1
5.644402736E0,-6.028980017E-1,5.138649940E-1,-6.974100322E-2,7.952402405E-1
5.649415659E0,-5.475249887E-1,3.976170123E-1,1.376200002E-2,6.768103828E-1
5.654428501E0,-5.188140273E-1,2.565349936E-1,1.511099935E-1,5.981742455E-1
5.659441194E0,-4.760330021E-1,6.334999949E-2,3.014540076E-1,5.670054323E-1
5.664454117E0,-4.196299911E-1,-1.819269955E-1,4.784330130E-1,6.618798297E-1
5.669467025E0,-3.771539927E-1,-4.658710063E-1,7.365980148E-1,9.496618156E-1
5.674479871E0,-3.623859882E-1,-7.615240216E-1,1.048789978E0,1.345809369E0
5.679492578E0,-3.071259856E-1,-1.055577040E0,1.374222994E0,1.759846043E0
5.684505502E0,-2.792949975E-1,-1.280529976E0,1.740280986E0,2.178609792E0
5.689518425E0,-2.103610039E-1,-1.491353989E0,2.106201887E0,2.589300072E0
5.694531271E0,-1.138880029E-1,-1.688794017E0,2.376828909E0,2.917929295E0
5.699544290E0,-7.174000144E-2,-1.846315026E0,2.647686005E0,3.228663343E0
5.704556905E0,-8.392100036E-2,-1.992166042E0,2.864542007E0,3.490181827E0
5.709570059E0,-1.229370013E-1,-2.072443962E0,2.945797920E0,3.603867765E0
5.714582727E0,-1.342280060E-1,-2.101311922E0,2.905208111E0,3.588002664E0
5.719595650E0,-1.859879941E-1,-2.106276989E0,2.742842913E0,3.463261690E0
5.724608574E0,-2.103099972E-1,-2.087549925E0,2.540494919E0,3.294876237E0
5.729621420E0,-2.208230048E-1,-2.072444916E0,2.257333994E0,3.072352110E0
5.734634102E0,-2.178470045E-1,-2.047107935E0,1.852468967E0,2.769431258E0
5.739647025E0,-1.744839996E-1,-2.011261940E0,1.407590985E0,2.461083428E0
5.744659953E0,-7.739199698E-2,-1.950255990E0,9.224680066E-1,2.158804107E0
5.749672799E0,5.266000051E-3,-1.863687992E0,4.787369967E-1,1.924201074E0
5.754685703E0,1.009920016E-1,-1.778020978E0,4.894800112E-2,1.781559398E0
5.759698627E0,1.963939965E-1,-1.665488958E0,-3.397989869E-1,1.711107075E0
5.764711319E0,2.507900000E-1,-1.606428981E0,-7.151250243E-1,1.776207616E0
5.769724242E0,2.913309932E-1,-1.546337008E0,-1.063418984E0,1.899181884E0
5.774737179E0,3.311949968E-1,-1.525277019E0,-1.384878993E0,2.086636033E0
5.779750025E0,3.973099887E-1,-1.502105951E0,-1.570616007E0,2.209301283E0
5.784762972E0,4.760330021E-1,-1.476155996E0,-1.675305009E0,2.283044200E0
5.789775665E0,5.401710272E-1,-1.475332975E0,-1.712398052E0,2.323940450E0
5.794788577E0,5.763980150E-1,-1.472579002E0,-1.681871057E0,2.308552326E0
5.799801500E0,5.440199971E-1,-1.468276024E0,-1.665349960E0,2.285865860E0
5.804814351E0,5.795570016E-1,-1.475836992E0,-1.526716948E0,2.201101039E0
5.809827274E0,6.429389715E-1,-1.536708951E0,-1.442921042E0,2.203829861E0
5.814839976E0,7.210969925E-1,-1.596308947E0,-1.359544992E0,2.217328508E0
5.819852899E0,8.007119894E-1,-1.695497990E0,-1.303853035E0,2.283831399E0
5.824865746E0,8.272619843E-1,-1.793110967E0,-1.221446991E0,2.321969440E0
5.829878746E0,8.276119828E-1,-1.916553974E0,-1.098641992E0,2.359053826E0
5.834891606E0,8.013880253E-1,-2.024914980E0,-9.899100065E-1,2.392159122E0
5.839904529E0,7.754459977E-1,-2.118309975E0,-8.543339968E-1,2.412144320E0
5.844917226E0,7.359330058E-1,-2.183053970E0,-7.055379748E-1,2.409378729E0
5.849930149E0,6.554219723E-1,-2.219072104E0,-5.435320139E-1,2.376822672E0
5.854942995E0,5.744699836E-1,-2.240056992E0,-3.410330117E-1,2.337557401E0
5.859955919E0,5.204280019E-1,-2.287209034E0,-1.115679964E-1,2.348322356E0
5.864968596E0,5.204510093E-1,-2.402015924E0,7.693900168E-2,2.458956967E0
5.869981519E0,5.065259933E-1,-2.475711107E0,2.381629944E-1,2.538195359E0
5.874994399E0,5.057389736E-1,-2.549470901E0,3.722000122E-1,2.625663085E0
5.880007322E0,5.317019820E-1,-2.582660913E0,5.199739933E-1,2.687604388E0
5.885020259E0,5.436019897E-1,-2.603106022E0,6.271619797E-1,2.732214529E0
5.890033182E0,5.278030038E-1,-2.651580095E0,6.937389970E-1,2.791187347E0
5.895046115E0,5.251849890E-1,-2.632766962E0,6.788470149E-1,2.769136042E0
5.900058731E0,5.356969833E-1,-2.601114988E0,6.642029881E-1,2.737505443E0
5.905071707E0,5.455899835E-1,-2.570355892E0,6.089829803E-1,2.697268639E0
5.910084553E0,5.274789929E-1,-2.512840986E0,5.267040133E-1,2.621072496E0
5.915097476E0,4.814029932E-1,-2.441981077E0,4.173080027E-1,2.523720744E0
5.920110418E0,4.344980121E-1,-2.357281923E0,3.079060018E-1,2.416686304E0
5.925123111E0,3.187969923E-1,-2.313076019E0,2.393140048E-1,2.347173489E0
5.930135957E0,2.297260016E-1,-2.254509926E0,1.978060007E-1,2.274800267E0
5.935148880E0,1.539839953E-1,-2.195055962E0,1.833260059E-1,2.208073860E0
5.940161582E0,9.164900333E-2,-2.148494959E0,1.822900027E-1,2.158161202E0
5.945174505E0,2.316999948E-3,-2.101425886E0,2.219720036E-1,2.113118003E0
5.950187346E0,-7.281500101E-2,-2.026654959E0,2.887429893E-1,2.048415207E0
5.955200269E0,-1.606609970E-1,-1.992665052E0,3.282009959E-1,2.025892855E0
5.960213193E0,-2.746210098E-1,-1.972226024E0,3.539510071E-1,2.022467182E0
5.965226116E0,-3.735939860E-1,-1.965762973E0,3.660910130E-1,2.034163013E0
5.970239039E0,-4.715090096E-1,-1.932253003E0,3.509750068E-1,2.019679645E0
5.975251721E0,-5.548710227E-1,-1.912703991E0,3.358910084E-1,2.019688386E0
5.980264644E0,-6.510980129E-1,-1.893401980E0,3.072040081E-1,2.025653965E0
5.985277490E0,-7.331820130E-1,-1.874459982E0,2.921999991E-1,2.033847813E0
5.990290413E0,-8.148390055E-1,-1.814800978E0,2.772069871E-1,2.008558913E0
5.995303347E0,-8.963569999E-1,-1.768888950E0,2.077610046E-1,1.993887817E0
6.000316039E0,-9.370970130E-1,-1.709383965E0,1.519510001E-1,1.955309044E0
6.005328866E0,-9.372670054E-1,-1.663668990E0,1.234470010E-1,1.913505451E0
6.010341789E0,-9.515020251E-1,-1.604320049E0,9.497500211E-2,1.867677482E0
6.015354485E0,-9.252219796E-1,-1.558786035E0,8.020000160E-2,1.814464564E0
6.020367408E0,-8.992779851E-1,-1.499848962E0,3.826599941E-2,1.749203273E0
6.025380332E0,-8.870880008E-1,-1.454889059E0,2.367799915E-2,1.704167815E0
6.030393255E0,-8.476290107E-1,-1.382823944E0,-5.897599831E-2,1.623008062E0
6.035406188E0,-8.217129707E-1,-1.324228048E0,-1.552930027E-1,1.566176250E0
6.040419034E0,-7.549570203E-1,-1.278802991E0,-2.381040007E-1,1.503991591E0
6.045431943E0,-7.292360067E-1,-1.246505976E0,-2.665449977E-1,1.468539593E0
6.050444635E0,-6.902469993E-1,-1.227121949E0,-2.951410115E-1,1.438533077E0
6.055457543E0,-6.654180288E-1,-1.206807971E0,-2.966920137E-1,1.409678255E0
6.060470390E0,-6.139900088E-1,-1.185652971E0,-2.439270020E-1,1.357297713E0
6.065483313E0,-5.495619774E-1,-1.177396059E0,-1.640540063E-1,1.309653986E0
6.070496236E0,-4.584279954E-1,-1.168401957E0,-4.346000031E-2,1.255869472E0
6.075508942E0,-3.542619944E-1,-1.158964038E0,7.707499713E-2,1.214347461E0
6.080521865E0,-2.642329931E-1,-1.176525950E0,1.839769930E-1,1.219786834E0
6.085534779E0,-1.335249990E-1,-1.180621028E0,2.773259878E-1,1.220083866E0
6.090547625E0,-3.084999975E-3,-1.130285978E0,3.570989966E-1,1.185358850E0
6.095560544E0,1.407469958E-1,-1.121099949E0,4.233539999E-1,1.206608230E0
6.100573467E0,2.297129929E-1,-1.125895977E0,4.625000060E-1,1.238675125E0
6.105586144E0,2.777560055E-1,-1.131425977E0,4.746029973E-1,1.257982967E0
6.110599067E0,3.392010033E-1,-1.123731971E0,4.595910013E-1,1.260577150E0
6.115611971E0,4.004119933E-1,-1.102885008E0,4.174830019E-1,1.245382336E0
6.120624817E0,4.202539921E-1,-1.082445025E0,3.755249977E-1,1.220376858E0
6.125637535E0,4.534319937E-1,-1.062577009E0,3.882189989E-1,1.218763498E0
6.130650458E0,4.592210054E-1,-1.043125033E0,3.874169886E-1,1.203779752E0
6.135663309E0,4.651829898E-1,-1.010439038E0,4.139460027E-1,1.186900820E0
6.140676232E0,4.712840021E-1,-9.917510152E-1,4.133229852E-1,1.173249580E0
6.145689145E0,4.234400094E-1,-9.599940181E-1,4.127979875E-1,1.127515913E0
6.150701837E0,3.623920083E-1,-9.421650171E-1,3.714599907E-1,1.075632564E0
6.155714982E0,2.884759903E-1,-9.382020235E-1,3.709850013E-1,1.049319449E0
6.160727675E0,2.290019989E-1,-9.069700241E-1,3.431999981E-1,9.964049272E-1
6.165740521E0,1.704940051E-1,-8.758080006E-1,3.153550029E-1,9.463385427E-1
6.170753463E0,8.542799950E-2,-8.717589974E-1,3.282859921E-1,9.354321917E-1
6.175766386E0,9.699999937E-4,-8.947939873E-1,3.275119960E-1,9.528490584E-1
6.180779068E0,-9.648600221E-2,-9.176290035E-1,3.538799882E-1,9.882224359E-1
6.185791991E0,-1.388850063E-1,-9.269040227E-1,4.074569941E-1,1.021988901E0
6.190804924E0,-2.081570029E-1,-9.362229705E-1,4.337750077E-1,1.052617474E0
6.195817771E0,-2.498520017E-1,-9.593560100E-1,4.737330079E-1,1.098732424E0
6.200830448E0,-2.910250127E-1,-9.417380095E-1,4.728130102E-1,1.093214608E0
6.205843371E0,-3.862180114E-1,-8.967819810E-1,4.445919991E-1,1.072867335E0
6.210856217E0,-4.130600095E-1,-9.059739709E-1,4.026530087E-1,1.074028330E0
6.215869140E0,-4.356420040E-1,-8.655830026E-1,3.707039952E-1,1.037515948E0
6.220882063E0,-4.592109919E-1,-8.678650260E-1,3.405860066E-1,1.039260923E0
6.225894982E0,-4.447790086E-1,-9.027330279E-1,3.527849913E-1,1.066401677E0
6.230907905E0,-4.442540109E-1,-9.108300209E-1,3.651160002E-1,1.077164169E0
6.235920583E0,-4.140000045E-1,-8.442239761E-1,3.343259990E-1,9.979398776E-1
6.240933506E0,-4.240100086E-1,-8.464450240E-1,2.907080054E-1,9.903357059E-1
6.245946338E0,-4.229800105E-1,-8.405870199E-1,3.166010082E-1,9.928417929E-1
6.250959261E0,-4.083459973E-1,-8.082119823E-1,2.881740034E-1,9.502617103E-1
6.255971958E0,-3.800820112E-1,-7.366330028E-1,2.601099908E-1,8.687621788E-1
6.260984882E0,-3.489159942E-1,-7.399049997E-1,2.168000042E-1,8.462883796E-1
6.265997824E0,-2.936969995E-1,-7.358329892E-1,2.159000039E-1,8.211704618E-1
6.271010670E0,-2.658329904E-1,-7.188199759E-1,1.742890030E-1,7.859681883E-1
6.276023593E0,-2.093259990E-1,-6.301630139E-1,1.361330003E-1,6.778310938E-1
6.281036285E0,-1.384380013E-1,-5.683379769E-1,7.997100055E-2,5.903968980E-1
6.286049208E0,-1.232089996E-1,-5.117340088E-1,-2.953300066E-2,5.271853104E-1
6.291062131E0,-1.078450009E-1,-4.961139858E-1,-1.935030073E-1,5.433259104E-1
6.296074978E0,-1.250690073E-1,-4.368320107E-1,-3.231689930E-1,5.575864599E-1
6.301087953E0,-1.095929965E-1,-4.066529870E-1,-4.328399897E-1,6.039269272E-1
6.306100799E0,-8.066800237E-2,-3.897970021E-1,-5.153160095E-1,6.511525314E-1
6.311113722E0,-1.114199962E-2,-3.587160110E-1,-5.706509948E-1,6.741245275E-1
6.316126428E0,5.821700022E-2,-3.404850066E-1,-5.580210090E-1,6.562824889E-1
6.321139274E0,1.413120031E-1,-2.941910028E-1,-5.455570221E-1,6.357278449E-1
6.326152212E0,2.107280046E-1,-2.881650031E-1,-5.059599876E-1,6.192260250E-1
6.331164905E0,2.118549943E-1,-3.224290013E-1,-4.392180145E-1,5.845985492E-1
6.336177828E0,1.961729974E-1,-3.114379942E-1,-3.611420095E-1,5.156559126E-1
6.341190751E0,2.362399995E-1,-3.024350107E-1,-3.355630040E-1,5.097830938E-1
6.346203674E0,2.639940083E-1,-2.810249925E-1,-2.689749897E-1,4.701227796E-1
6.351216597E0,2.780410051E-1,-2.730799913E-1,-2.160259932E-1,4.455858076E-1
6.356229226E0,2.844029963E-1,-2.611350119E-1,-9.673699737E-2,3.980384472E-1
6.361242380E0,2.691720128E-1,-2.782129943E-1,1.045900024E-2,3.872537067E-1
6.366255073E0,2.967840135E-1,-2.694630027E-1,9.054300189E-2,4.109611851E-1
6.371267986E0,2.835359871E-1,-2.746959925E-1,1.979410052E-1,4.416233529E-1
6.376280909E0,2.795619965E-1,-2.333800048E-1,3.167909980E-1,4.826776076E-1
6.381293770E0,3.193030059E-1,-1.833810061E-1,4.241980016E-1,5.617178541E-1
6.386306693E0,3.609429896E-1,-1.496140063E-1,4.229759872E-1,5.758236521E-1
6.391319385E0,3.347820044E-1,-1.441410035E-1,4.219210148E-1,5.575598282E-1
6.396332308E0,2.950879931E-1,-1.392250061E-1,3.664819896E-1,4.906827639E-1
6.401345155E0,2.689540088E-1,-9.407299757E-2,3.247799873E-1,4.320509552E-1
6.406358082E0,2.699890137E-1,-2.197300084E-2,2.967570126E-1,4.017979652E-1
6.411371005E0,2.437520027E-1,9.043999948E-3,2.823979855E-1,3.731560732E-1
6.416383712E0,2.049700022E-1,2.799299918E-2,2.823210061E-1,3.500020861E-1
6.421396635E0,1.642850041E-1,1.812200062E-2,2.680299878E-1,3.148937025E-1
6.426409558E0,1.657239944E-1,4.899499938E-2,2.536680102E-1,3.069404041E-1
6.431422476E0,1.673499942E-1,5.251799896E-2,3.074139953E-1,3.539315262E-1
6.436435323E0,1.828690022E-1,6.935799867E-2,3.748149872E-1,4.227740278E-1
6.441448015E0,1.715870053E-1,9.910299629E-2,4.150680006E-1,4.599401584E-1
6.446460938E0,1.471740007E-1,1.281079948E-1,4.281730056E-1,4.705358302E-1
6.451473842E0,1.230510026E-1,1.426240057E-1,4.005480111E-1,4.426306196E-1
6.456486688E0,1.127320006E-1,1.426559985E-1,3.730590045E-1,4.150087454E-1
6.461499606E0,1.161829978E-1,1.690279990E-1,3.184770048E-1,3.788093927E-1
6.466512299E0,1.062199995E-1,2.355169952E-1,2.367690057E-1,3.504432983E-1
6.471525227E0,8.261600137E-2,2.741709948E-1,1.279260069E-1,3.136242996E-1
6.476538073E0,5.547999963E-2,3.055579960E-1,3.661600128E-2,3.127050541E-1
6.481551000E0,4.505199939E-2,3.143630028E-1,-1.724500023E-2,3.180427176E-1
6.486563923E0,3.493599966E-2,3.111560047E-1,-8.502999693E-2,3.244513580E-1
6.491576586E0,3.855999932E-2,3.352530003E-1,-1.392119974E-1,3.650498979E-1
6.496589740E0,5.165899917E-2,3.335849941E-1,-1.884859949E-1,3.866194133E-1
6.501602414E0,1.232070029E-1,3.144040108E-1,-2.285870016E-1,4.077767340E-1
6.506615337E0,1.135130003E-1,3.656010032E-1,-2.146490067E-1,4.388889277E-1
6.511628183E0,7.677000016E-2,3.898229897E-1,-2.143889964E-1,4.514623329E-1
6.516641106E0,6.211499870E-2,3.715550005E-1,-2.220900059E-1,4.373046560E-1
6.521653803E0,9.275300056E-2,3.657459915E-1,-2.621119916E-1,4.594300225E-1
6.526666726E0,8.270599693E-2,3.761230111E-1,-2.481369972E-1,4.581274613E-1
6.531679572E0,9.985800087E-2,4.004659951E-1,-2.342209965E-1,4.745567498E-1
6.536692467E0,9.553900361E-2,3.811649978E-1,-2.685900033E-1,4.759779896E-1
6.541705159E0,1.254429966E-1,3.625859916E-1,-2.950719893E-1,4.840165551E-1
6.546718313E0,1.286630034E-1,3.612180054E-1,-2.950330079E-1,4.838151420E-1
6.551731005E0,1.456770003E-1,3.202109933E-1,-1.726559997E-1,3.918762086E-1
6.556743933E0,1.523050070E-1,2.614940107E-1,-4.617099836E-2,3.061171244E-1
6.561756856E0,1.690440029E-1,2.336879969E-1,7.630600035E-2,2.983430249E-1
6.566769702E0,1.873199940E-1,2.078250051E-1,2.527849972E-1,3.770679882E-1
6.571782620E0,2.199819982E-1,1.958570033E-1,4.155420065E-1,5.093399694E-1
6.576795313E0,2.398349941E-1,1.662359983E-1,5.527070165E-1,6.250122219E-1
6.581808236E0,2.311020046E-1,1.257980019E-1,6.067730188E-1,6.613673489E-1
6.586821159E0,2.371989936E-1,8.494800329E-2,7.016999722E-1,7.455617860E-1
6.591833991E0,2.709049881E-1,1.114040017E-1,7.831400037E-1,8.361271611E-1
6.596846683E0,3.186450005E-1,1.643009931E-1,8.374699950E-1,9.109804856E-1
6.601859626E0,3.530409932E-1,1.756470054E-1,8.510580063E-1,9.379709716E-1
6.606872549E0,3.740440011E-1,1.727640033E-1,8.375149965E-1,9.333743542E-1
6.611885381E0,4.086650014E-1,1.694329977E-1,8.240650296E-1,9.353062585E-1
6.616898304E0,4.702349901E-1,1.792940050E-1,7.562419772E-1,9.083882508E-1
6.621911218E0,5.172430277E-1,1.887329966E-1,7.294279933E-1,9.139068285E-1
6.626924141E0,5.363079906E-1,2.112749964E-1,7.300050259E-1,9.301455384E-1
6.631936837E0,5.411760211E-1,2.467630059E-1,7.443739772E-1,9.528148219E-1
6.636949760E0,6.139360070E-1,2.815130055E-1,7.452849746E-1,1.005791572E0
6.641962602E0,7.271339893E-1,3.019570112E-1,6.918830276E-1,1.048143119E0
6.646975525E0,7.717549801E-1,3.759810030E-1,7.204160094E-1,1.120699197E0
6.651988227E0,7.618010044E-1,4.217630029E-1,6.810590029E-1,1.105471016E0
6.657001150E0,7.655220032E-1,4.801220000E-1,6.010559797E-1,1.085269258E0
6.662014011E0,7.418140173E-1,5.650749803E-1,4.803450108E-1,1.048965728E0
6.667026934E0,7.314860225E-1,6.627830267E-1,3.734549880E-1,1.055377548E0
6.672039858E0,6.935420036E-1,7.463009953E-1,2.803379893E-1,1.056671697E0
6.677052781E0,6.420350075E-1,7.747730017E-1,1.737300009E-1,1.021109332E0
6.682065473E0,5.498260260E-1,7.761290073E-1,8.072400093E-2,9.545686247E-1
6.687078319E0,4.718089998E-1,7.776470184E-1,1.289000036E-3,9.095824751E-1
6.692091319E0,4.352729917E-1,7.526260018E-1,-6.468799710E-2,8.718331336E-1
6.697104165E0,3.720360100E-1,7.148079872E-1,-1.172339991E-1,8.143126315E-1
6.702117112E0,2.818149924E-1,6.784899831E-1,-1.292340010E-1,7.459690169E-1
6.707130035E0,2.053489983E-1,6.300190091E-1,-8.705899864E-2,6.683348204E-1
6.712142708E0,1.697620004E-1,5.830709934E-1,-3.157899901E-2,6.081020912E-1
6.717155554E0,1.340059936E-1,5.103030205E-1,5.085600168E-2,5.300501032E-1
6.722168487E0,5.672999844E-2,4.253210127E-1,1.602710038E-1,4.580426304E-1
6.727181179E0,-7.490999997E-3,3.005689979E-1,2.831090093E-1,4.129752398E-1
6.732194092E0,-5.872299895E-2,1.905149966E-1,4.466120005E-1,4.890875520E-1
6.737206939E0,-5.591899902E-2,8.152300119E-2,5.826730132E-1,5.909998092E-1
6.742219853E0,1.445700042E-2,-1.081990004E-1,6.640710235E-1,6.729831742E-1
6.747232776E0,8.411899954E-2,-3.243609965E-1,7.998179793E-1,8.671763732E-1
6.752245713E0,1.805540025E-1,-4.852519929E-1,1.003520966E0,1.129213697E0
6.757258636E0,3.041110039E-1,-6.045690179E-1,1.179841042E0,1.360151493E0
6.762271323E0,4.412490129E-1,-6.553009748E-1,1.383301973E0,1.592998559E0
6.767284246E0,5.239440203E-1,-7.331600189E-1,1.518636942E0,1.765870638E0
6.772297122E0,5.793610215E-1,-8.112499714E-1,1.694885015E0,1.966321674E0
6.777310045E0,6.212760210E-1,-8.627809882E-1,1.830412030E0,2.116786037E0
6.782322982E0,6.633700132E-1,-9.155679941E-1,1.925333023E0,2.232763260E0
6.787335674E0,7.056499720E-1,-9.563949704E-1,1.966112971E0,2.297440628E0
6.792348597E0,7.618650198E-1,-1.026520014E0,1.952831030E0,2.334037420E0
6.797361443E0,8.322110176E-1,-1.071699977E0,1.831043959E0,2.278999341E0
6.802374376E0,9.029340148E-1,-1.091943026E0,1.628008962E0,2.158249889E0
6.807387069E0,9.740139842E-1,-1.073554993E0,1.384572029E0,2.004560617E0
6.812400203E0,1.004240036E0,-1.070848942E0,1.100726008E0,1.834887804E0
6.817412818E0,9.525660276E-1,-1.083776951E0,8.173369765E-1,1.658310661E0
6.822425823E0,9.002990127E-1,-1.084517002E0,5.206859708E-1,1.502607507E0
6.827438669E0,8.881750107E-1,-1.100198984E0,2.107630074E-1,1.429585149E0
6.832451606E0,8.752149940E-1,-1.075801969E0,-7.167699933E-2,1.388700383E0
6.837464529E0,9.159799814E-1,-1.038305998E0,-2.994529903E-1,1.416605367E0
6.842477212E0,9.424840212E-1,-1.014109015E0,-5.136190057E-1,1.476650842E0
6.847490058E0,9.821500182E-1,-1.003393054E0,-7.005209923E-1,1.569122666E0
6.852502976E0,9.669219851E-1,-1.005874038E0,-8.329880238E-1,1.624989155E0
6.857515899E0,9.242150187E-1,-1.035166979E0,-9.518929720E-1,1.682808458E0
6.862528596E0,8.814179897E-1,-1.049823046E0,-1.084619045E0,1.747977281E0
6.867541519E0,7.703049779E-1,-1.036466002E0,-1.176632047E0,1.747024472E0
6.872554447E0,6.589919925E-1,-1.049479008E0,-1.227954030E0,1.744576663E0
6.877567294E0,5.748950243E-1,-1.034312963E0,-1.238616943E0,1.713032261E0
6.882580198E0,5.041679740E-1,-1.004238963E0,-1.249552965E0,1.680495122E0
6.887593121E0,4.329360127E-1,-1.027811050E0,-1.219789028E0,1.652789890E0
6.892605827E0,3.336690068E-1,-1.050415039E0,-1.162961006E0,1.602243759E0
6.897618750E0,2.334810048E-1,-1.085978031E0,-1.065371990E0,1.539116351E0
6.902631610E0,1.733269989E-1,-1.079784989E0,-9.815639853E-1,1.469505267E0
6.907644533E0,1.121869981E-1,-1.059381008E0,-9.114570022E-1,1.402008527E0
6.912657448E0,2.282200009E-2,-1.065664053E0,-8.141790032E-1,1.341286012E0
6.917670140E0,-1.083730012E-1,-1.098747969E0,-7.033230066E-1,1.309066483E0
6.922683063E0,-2.536650002E-1,-1.131212950E0,-5.925790071E-1,1.301974865E0
6.927695923E0,-3.856500089E-1,-1.162997007E0,-4.955900013E-1,1.321702470E0
6.932708846E0,-5.038579702E-1,-1.207561970E0,-3.988049924E-1,1.367890415E0
6.937721525E0,-6.353369951E-1,-1.251129031E0,-2.886550128E-1,1.432584611E0
6.942734448E0,-7.524250150E-1,-1.347959995E0,-1.788399965E-1,1.554066696E0
6.947747356E0,-8.824170232E-1,-1.443658948E0,-1.235999982E-3,1.691984778E0
6.952760202E0,-1.011536002E0,-1.551905990E0,1.351940036E-1,1.857389217E0
6.957773193E0,-1.126214027E0,-1.631973982E0,2.985889912E-1,2.005206348E0
6.962786039E0,-1.226454020E0,-1.711305976E0,4.617570043E-1,2.155452884E0
6.967798962E0,-1.339565992E0,-1.790125966E0,6.383739710E-1,2.325190175E0
6.972811654E0,-1.424641967E0,-1.855203986E0,7.740539908E-1,2.463847833E0
6.977824530E0,-1.495273948E0,-1.961295962E0,8.824800253E-1,2.619407762E0
6.982837453E0,-1.564998984E0,-2.054168940E0,9.637060165E-1,2.756367381E0
6.987850145E0,-1.538419008E0,-2.079324007E0,1.004101992E0,2.774624692E0
6.992863280E0,-1.511271954E0,-2.145757914E0,9.764609933E-1,2.800302843E0
6.997875972E0,-1.483757019E0,-2.225980997E0,9.352189898E-1,2.833930283E0
7.002888809E0,-1.374204040E0,-2.183876038E0,9.076390266E-1,2.735244028E0
7.007901732E0,-1.291551948E0,-2.169245958E0,8.528530002E-1,2.664787553E0
7.012914449E0,-1.235936046E0,-2.168530941E0,7.981259823E-1,2.620509385E0
7.017927603E0,-1.193712950E0,-2.154573917E0,7.162349820E-1,2.565176782E0
7.022940299E0,-1.110502005E0,-2.140882969E0,5.935400128E-1,2.483723885E0
7.027953453E0,-9.728050232E-1,-2.031805992E0,4.708339870E-1,2.301362606E0
7.032966126E0,-8.353610039E-1,-1.949651003E0,3.344460130E-1,2.147282277E0
7.037979049E0,-7.665910125E-1,-1.894103050E0,1.979430020E-1,2.052917333E0
7.042991895E0,-7.123010159E-1,-1.878491998E0,7.489000261E-2,2.010401312E0
7.048004607E0,-6.727430224E-1,-1.888862014E0,-3.477400169E-2,2.005390763E0
7.053017530E0,-6.071159840E-1,-1.884224057E0,-7.659699768E-2,1.981100001E0
7.058030381E0,-5.154730082E-1,-1.864467978E0,-6.421600282E-2,1.935478483E0
7.063043304E0,-3.838610053E-1,-1.829776049E0,-2.484700084E-2,1.869771920E0
7.068056222E0,-2.530130148E-1,-1.780158997E0,2.788900025E-2,1.798265674E0
7.073068914E0,-1.499129981E-1,-1.743142962E0,1.349090040E-1,1.754771134E0
7.078082063E0,-4.722899944E-2,-1.718883038E0,2.417670041E-1,1.736444862E0
7.083094756E0,1.452399977E-2,-1.694350004E0,3.213410079E-1,1.724613849E0
7.088107679E0,7.606700063E-2,-1.655959964E0,4.145120084E-1,1.708745094E0
7.093120535E0,1.102029979E-1,-1.631239057E0,4.804840088E-1,1.704098132E0
7.098133458E0,1.307660043E-1,-1.593001962E0,5.328739882E-1,1.684847081E0
7.103146362E0,1.653770059E-1,-1.527973056E0,5.853549838E-1,1.644594683E0
7.108159054E0,1.865900010E-1,-1.463049054E0,6.378610134E-1,1.606920980E0
7.113171981E0,1.536740065E-1,-1.371124029E0,7.040299773E-1,1.548952876E0
7.118184828E0,1.210040003E-1,-1.320341945E0,7.294020057E-1,1.513265378E0
7.123197766E0,4.780900106E-2,-1.242997050E0,7.549160123E-1,1.455068917E0
7.128210458E0,2.108999994E-3,-1.193452954E0,7.533090115E-1,1.411314589E0
7.133223386E0,-2.958700061E-2,-1.131073952E0,7.382389903E-1,1.350999808E0
7.138236309E0,-4.726999998E-2,-1.110342026E0,7.097060084E-1,1.318626742E0
7.143249174E0,-6.426899880E-2,-1.077067971E0,6.541270018E-1,1.261779717E0
7.148262097E0,-3.981599957E-2,-1.044667959E0,5.987049937E-1,1.204725748E0
7.153275006E0,2.630100027E-2,-9.857450128E-1,5.297650099E-1,1.119390878E0
7.158287698E0,7.947199792E-2,-9.682210088E-1,4.745160043E-1,1.081172123E0
7.163300635E0,6.529899687E-2,-8.967890143E-1,4.057190120E-1,9.864595339E-1
7.168313558E0,5.184900016E-2,-8.528940082E-1,3.369359970E-1,9.185000675E-1
7.173326394E0,3.887199983E-2,-8.094080091E-1,2.545869946E-1,8.493920740E-1
7.178339087E0,-1.053999993E-3,-7.662770152E-1,1.995369941E-1,7.918311606E-1
7.183351987E0,-1.341400016E-2,-7.236130238E-1,1.445659995E-1,7.380346007E-1
7.188364910E0,-1.183700003E-2,-6.949579716E-1,7.603599876E-2,6.992053847E-1
7.193377737E0,1.710600033E-2,-6.530429721E-1,7.577999961E-3,6.533109250E-1
7.198390737E0,1.901599951E-2,-6.387590170E-1,-8.805000037E-2,6.450794467E-1
7.203403573E0,3.458100185E-2,-6.656730175E-1,-1.836069971E-1,6.913956475E-1
7.208416265E0,5.032299832E-2,-6.789320111E-1,-2.519440055E-1,7.259179443E-1
7.213429159E0,1.073210016E-1,-6.509919763E-1,-3.203819990E-1,7.334527768E-1
7.218442006E0,1.512490064E-1,-6.087390184E-1,-3.753910065E-1,7.309978538E-1
7.223454944E0,1.955409944E-1,-6.065520048E-1,-3.488779962E-1,7.265380040E-1
7.228467867E0,2.267149985E-1,-6.035339832E-1,-2.953389883E-1,7.091389691E-1
7.233480568E0,2.448489964E-1,-6.270189881E-1,-2.011400014E-1,7.025390684E-1
7.238493491E0,2.908099890E-1,-6.497840285E-1,-9.351500124E-2,7.180075131E-1
7.243506400E0,3.506959975E-1,-6.449270248E-1,1.401100028E-2,7.342444131E-1
7.248519246E0,4.110830128E-1,-6.398389935E-1,1.350789964E-1,7.724179674E-1
7.253532160E0,4.718630016E-1,-6.346189976E-1,2.152370065E-1,8.195870505E-1
7.258544852E0,5.192750096E-1,-6.294530034E-1,2.681559920E-1,8.589326255E-1
7.263557799E0,5.666530132E-1,-6.382279992E-1,3.075329959E-1,9.071974206E-1
7.268570645E0,6.004750133E-1,-6.745830178E-1,3.469859958E-1,9.674873491E-1
7.273583640E0,5.934429765E-1,-7.114980221E-1,3.729450107E-1,9.987452041E-1
7.278596486E0,5.362989902E-1,-6.719539762E-1,3.092699945E-1,9.136666145E-1
7.283609409E0,5.390989780E-1,-6.505039930E-1,2.665899992E-1,8.859195114E-1
7.288622333E0,5.454009771E-1,-6.337490082E-1,2.382680029E-1,8.694088063E-1
7.293635035E0,5.384950042E-1,-6.310949922E-1,1.964029968E-1,8.525443659E-1
7.298647958E0,4.841090143E-1,-6.240280271E-1,1.612550020E-1,8.060866529E-1
7.303660804E0,4.193550050E-1,-6.574000120E-1,1.458950043E-1,7.932961290E-1
7.308673727E0,3.849540055E-1,-6.807129979E-1,1.582800001E-1,7.978798972E-1
7.313686419E0,3.508490026E-1,-6.903489828E-1,1.842579991E-1,7.960073812E-1
7.318699343E0,2.962709963E-1,-6.647909880E-1,2.156749964E-1,7.591042517E-1
7.323712198E0,2.595590055E-1,-6.959829926E-1,2.679960132E-1,7.896740254E-1
7.328725121E0,2.245469987E-1,-6.903600097E-1,3.618510067E-1,8.111439137E-1
7.333738068E0,1.895730048E-1,-6.580489874E-1,4.421960115E-1,8.151709677E-1
7.338750760E0,1.333439946E-1,-6.069520116E-1,4.735170007E-1,7.812744173E-1
7.343763910E0,1.108260006E-1,-5.845680237E-1,4.715679884E-1,7.591959855E-1
7.348776602E0,7.522600144E-2,-5.942260027E-1,4.704790115E-1,7.616521475E-1
7.353789539E0,9.389399737E-2,-5.777360201E-1,4.015100002E-1,7.097924147E-1
7.358802385E0,8.057300001E-2,-4.969289899E-1,3.533399999E-1,6.150443763E-1
7.363815308E0,7.075099647E-2,-4.646899998E-1,3.113270104E-1,5.637969553E-1
7.368828000E0,1.018840000E-1,-4.093100131E-1,2.019460052E-1,4.676507514E-1
7.373840933E0,1.739459932E-1,-3.069890141E-1,-8.711799979E-2,3.634405168E-1
7.378853856E0,1.754769981E-1,-3.056150079E-1,-8.746399730E-2,3.631014469E-1
7.383866683E0,2.184839994E-1,-2.792409956E-1,-1.827950031E-1,3.989045058E-1
7.388879376E0,1.932689995E-1,-2.123229951E-1,-2.644419968E-1,3.903377128E-1
7.393892290E0,1.681990027E-1,-1.589529961E-1,-3.597300053E-1,4.277413192E-1
7.398905136E0,1.434800029E-1,-1.052879989E-1,-4.278529882E-1,4.633899583E-1
7.403918164E0,1.326339990E-1,-3.736900166E-2,-4.961040020E-1,5.148858133E-1
7.408931010E0,1.356139928E-1,1.756599918E-2,-5.372400284E-1,5.543704244E-1
7.413944010E0,1.250949949E-1,4.596000165E-2,-5.648869872E-1,5.803950274E-1
7.418956856E0,1.283150017E-1,4.783900082E-2,-5.518079996E-1,5.685467246E-1
7.423969535E0,1.451780051E-1,5.031999946E-2,-5.524560213E-1,5.734251573E-1
7.428982458E0,1.894329935E-1,8.057499677E-2,-5.259649754E-1,5.648153189E-1
7.433995290E0,2.338359952E-1,9.762399644E-2,-5.131760240E-1,5.723280081E-1
7.439008213E0,2.920500040E-1,8.773099631E-2,-4.868269861E-1,5.744479497E-1
7.444020905E0,3.366999924E-1,9.172700346E-2,-4.741469920E-1,5.887241273E-1
7.449034059E0,4.224070013E-1,1.099470034E-1,-4.615820050E-1,6.352747167E-1
7.454046732E0,4.946410060E-1,1.425659955E-1,-4.491580129E-1,6.831820463E-1
7.459059578E0,5.531920195E-1,1.352110058E-1,-3.823969960E-1,6.859525414E-1
7.464072501E0,5.705310106E-1,1.013519987E-1,-2.884959877E-1,6.473081157E-1
7.469085193E0,6.013159752E-1,8.190499991E-2,-1.674740016E-1,6.295529146E-1
7.474098101E0,6.320379972E-1,7.645300031E-2,-4.650399834E-2,6.383413766E-1
7.479111024E0,6.323950291E-1,9.361000359E-2,1.052350029E-1,6.478894284E-1
7.484123923E0,6.449149847E-1,1.144680008E-1,2.402739972E-1,6.976746050E-1
7.489136846E0,6.889500022E-1,1.218900010E-1,3.205319941E-1,7.695778304E-1
7.494149664E0,7.335450053E-1,1.562200040E-1,3.190940022E-1,8.150545667E-1
7.499162587E0,7.234569788E-1,1.494060010E-1,3.177230060E-1,8.041517654E-1
7.504175298E0,6.991220117E-1,1.285289973E-1,3.300940096E-1,7.837431630E-1
7.509188221E0,6.878330112E-1,1.073649973E-1,3.697940111E-1,7.882823761E-1
7.514201053E0,6.896359921E-1,9.929499775E-2,4.096179903E-1,8.082352356E-1
7.519213976E0,7.454469800E-1,9.073600173E-2,4.223169982E-1,8.615543332E-1
7.524226669E0,8.009229898E-1,1.088560000E-1,3.942709863E-1,8.993202294E-1
7.529239592E0,8.152880073E-1,9.951300174E-2,3.526580036E-1,8.938484434E-1
7.534252544E0,8.023449779E-1,1.036819965E-1,3.519310057E-1,8.822487476E-1
7.539265467E0,8.304370046E-1,1.215599999E-1,3.648009896E-1,9.151405434E-1
7.544278303E0,8.316519856E-1,1.257569939E-1,3.776600063E-1,9.220015874E-1
7.549291226E0,8.059819937E-1,1.437660009E-1,3.632270098E-1,8.956614861E-1
7.554303910E0,8.076810241E-1,1.345629990E-1,3.624050021E-1,8.954290720E-1
7.559316833E0,7.687289715E-1,1.254229993E-1,4.160430133E-1,8.830441378E-1
7.564329727E0,7.163990140E-1,1.297030002E-1,4.560799897E-1,8.591038194E-1
7.569342573E0,6.642739773E-1,1.473720074E-1,4.416629970E-1,8.111994997E-1
7.574355520E0,6.256610155E-1,1.375740021E-1,4.272910058E-1,7.700363083E-1
7.579368212E0,6.004520059E-1,1.274060011E-1,4.674769938E-1,7.715631148E-1
7.584381135E0,5.884850025E-1,1.029260010E-1,5.077959895E-1,7.840695931E-1
7.589394058E0,5.898680091E-1,1.321299970E-1,5.482599735E-1,8.160830857E-1
7.594406900E0,5.774000287E-1,1.468649954E-1,5.480129719E-1,8.094926419E-1
7.599419823E0,5.646809936E-1,1.743749976E-1,5.206750035E-1,7.876380664E-1
7.604432515E0,5.652520061E-1,2.011439949E-1,4.798550010E-1,7.682639904E-1
7.609445669E0,5.654770136E-1,2.137800008E-1,4.118970037E-1,7.315225788E-1
7.614458380E0,5.788789988E-1,2.124300003E-1,3.440240026E-1,7.061019151E-1
7.619471303E0,5.422850251E-1,2.008879930E-1,2.936559916E-1,6.485852878E-1
7.624484226E0,5.237619877E-1,1.843419969E-1,2.535800040E-1,6.104190446E-1
7.629497073E0,5.351489782E-1,1.957049966E-1,2.540870011E-1,6.238950863E-1
7.634510012E0,5.465090275E-1,2.069399953E-1,2.546199858E-1,6.374383232E-1
7.639522704E0,5.231739879E-1,2.201000005E-1,2.729910016E-1,6.298246730E-1
7.644535627E0,5.173789859E-1,2.293830067E-1,2.604790032E-1,6.230143577E-1
7.649548473E0,4.873360097E-1,2.257100046E-1,2.340359986E-1,5.858448952E-1
7.654561180E0,4.164020121E-1,1.809020042E-1,2.485029995E-1,5.175615051E-1
7.659574103E0,3.503099978E-1,1.818690002E-1,3.341099918E-1,5.171294948E-1
7.664587007E0,3.175520003E-1,1.894840002E-1,2.946479917E-1,4.728222692E-1
7.669599930E0,2.862119973E-1,2.243259996E-1,3.504349887E-1,5.050189529E-1
7.674612867E0,2.413379997E-1,2.585209906E-1,3.518480062E-1,4.988728818E-1
7.679625482E0,1.984910071E-1,3.027670085E-1,3.161920011E-1,4.806702850E-1
7.684638622E0,1.666850001E-1,3.748889863E-1,2.637000084E-1,4.877123494E-1
7.689651314E0,1.635639966E-1,3.663299978E-1,2.109300047E-1,4.532574491E-1
7.694664214E0,5.244699866E-2,2.488380075E-1,2.534309924E-1,3.590241071E-1
7.699677137E0,-4.029700160E-2,2.391410023E-1,1.347240061E-1,2.774217459E-1
7.704689983E0,-8.161199838E-2,2.701320052E-1,-2.694199979E-2,2.834743196E-1
7.709702906E0,-9.621199965E-2,2.753059864E-1,-2.536899969E-2,2.927348991E-1
7.714715598E0,-1.649020016E-1,2.264969945E-1,4.419500008E-2,2.836313746E-1
7.719728521E0,-1.915629953E-1,2.599720061E-1,3.185399994E-2,3.244942256E-1
7.724741367E0,-2.579750121E-1,2.807820141E-1,-7.977999747E-3,3.813833961E-1
7.729754310E0,-3.372020125E-1,2.616780102E-1,3.368199989E-2,4.281530747E-1
7.734767233E0,-4.295539856E-1,1.618809998E-1,4.788200185E-2,4.615352324E-1
7.739779896E0,-4.809420109E-1,7.670500129E-2,8.913499862E-2,4.951100110E-1
7.744793050E0,-5.192899704E-1,7.423999906E-2,1.438760012E-1,5.439429699E-1
7.749805756E0,-4.903370142E-1,9.954400361E-2,2.803040147E-1,5.735065272E-1
7.754818679E0,-4.483920038E-1,1.250769943E-1,4.439780116E-1,6.432854097E-1
7.759831544E0,-4.038259983E-1,1.218800023E-1,5.921170115E-1,7.270025634E-1
7.764844467E0,-4.273130000E-1,6.495600194E-2,6.331560016E-1,7.666173781E-1
7.769857160E0,-5.081080198E-1,7.325000130E-3,6.881470084E-1,8.554377363E-1
7.774870069E0,-5.890610218E-1,3.225999884E-3,7.160859704E-1,9.272445263E-1
7.779882915E0,-6.428070068E-1,3.902800009E-2,6.352419853E-1,9.045752665E-1
7.784895838E0,-6.834440231E-1,6.032599881E-2,5.682219863E-1,8.908485756E-1
7.789908530E0,-7.110509872E-1,6.705500185E-2,5.286629796E-1,8.885800053E-1
7.794921435E0,-7.389730215E-1,8.668500185E-2,5.165070295E-1,9.057455093E-1
7.799934358E0,-7.532489896E-1,1.194439977E-1,4.227249920E-1,8.719789721E-1
7.804947295E0,-7.536200285E-1,1.795369983E-1,3.289119899E-1,8.416411220E-1
7.809960218E0,-7.398890257E-1,2.127750069E-1,2.486210018E-1,8.090249542E-1
7.814973064E0,-6.980460286E-1,1.788209975E-1,1.953399926E-1,7.465942137E-1
7.819985987E0,-6.413829923E-1,1.053199992E-1,1.825910062E-1,6.751325207E-1
7.824998669E0,-5.698909760E-1,-3.449499980E-2,2.239000052E-1,6.132673494E-1
7.830011592E0,-5.244839787E-1,-2.134480029E-1,3.192819953E-1,6.500649863E-1
7.835024545E0,-4.916900098E-1,-3.769510090E-1,4.687289894E-1,7.768899500E-1
7.840037391E0,-4.854840040E-1,-5.114979744E-1,6.450480223E-1,9.557258221E-1
7.845050314E0,-4.929369986E-1,-6.582790017E-1,8.483499885E-1,1.181531139E0
7.850063006E0,-5.142899752E-1,-8.041660190E-1,1.065127015E0,1.430270157E0
7.855075934E0,-5.499179959E-1,-9.363250136E-1,1.254691958E0,1.659327046E0
7.860088780E0,-5.725910068E-1,-1.028007984E0,1.389897943E0,1.821119756E0
7.865101713E0,-5.960999727E-1,-1.120758057E0,1.484501958E0,1.953248541E0
7.870114636E0,-6.337140203E-1,-1.187595963E0,1.511289954E0,2.023851516E0
7.875127555E0,-6.169710159E-1,-1.242213964E0,1.456629038E0,2.011347042E0
7.880140478E0,-5.868049860E-1,-1.257575035E0,1.320562005E0,1.915651082E0
7.885153189E0,-6.119970083E-1,-1.288189054E0,1.157623053E0,1.836862136E0
7.890166112E0,-6.376879811E-1,-1.320112944E0,1.049446940E0,1.802965065E0
7.895178958E0,-6.226260066E-1,-1.284754038E0,8.460929990E-1,1.659557003E0
7.900191881E0,-5.941650271E-1,-1.236372948E0,6.156309843E-1,1.503546359E0
7.905204583E0,-5.387660265E-1,-1.201524973E0,4.396570027E-1,1.388246870E0
7.910217506E0,-4.970000088E-1,-1.166417956E0,2.772600055E-1,1.297849363E0
7.915230333E0,-4.415490031E-1,-1.157901049E0,1.011150032E-1,1.243352164E0
7.920243256E0,-3.722069860E-1,-1.121325970E0,-7.098999806E-3,1.181507667E0
7.925256194E0,-2.888430059E-1,-1.138074994E0,-6.108200178E-2,1.175744864E0
7.930268887E0,-2.049369961E-1,-1.126497984E0,-8.806599677E-2,1.148369496E0
7.935282059E0,-1.204259992E-1,-1.140900016E0,-6.085199863E-2,1.148850832E0
7.940294752E0,-4.896999896E-2,-1.126839995E0,6.951999851E-3,1.127924983E0
7.945307685E0,3.644900024E-2,-1.125161052E0,1.153559983E-1,1.131646114E0
7.950320531E0,1.220100001E-1,-1.108832955E0,2.507950068E-1,1.143370062E0
7.955333473E0,1.666940004E-1,-1.118878007E0,3.860700130E-1,1.195292826E0
7.960346165E0,2.247699946E-1,-1.114786029E0,5.076429844E-1,1.245379798E0
7.965359063E0,2.552489936E-1,-1.110509038E0,6.292039752E-1,1.301645119E0
7.970371987E0,2.583810091E-1,-1.079089999E0,7.644150257E-1,1.347414674E0
7.975384847E0,3.162190020E-1,-1.075342059E0,8.315960169E-1,1.395674366E0
7.980397770E0,4.150989950E-1,-1.085927010E0,8.716629744E-1,1.453045418E0
7.985410477E0,4.730609953E-1,-1.083788991E0,8.982869983E-1,1.485026873E0
7.990423400E0,5.448060036E-1,-1.082731962E0,9.114879966E-1,1.516552819E0
7.995436245E0,5.760520101E-1,-1.082893968E0,8.704209924E-1,1.504037223E0
8.000449168E0,6.214489937E-1,-1.070762992E0,7.614750266E-1,1.453470486E0
8.005461847E0,6.536499858E-1,-1.046108007E0,6.663370132E-1,1.402000457E0
8.010475001E0,6.591219902E-1,-1.022348046E0,5.441030264E-1,1.332548472E0
8.015487698E0,6.514400244E-1,-1.026463985E0,4.355880022E-1,1.291409821E0
8.020500621E0,6.169989705E-1,-1.044739962E0,2.862949967E-1,1.246649166E0
8.025513471E0,5.690479875E-1,-1.104236007E0,1.779319942E-1,1.254915362E0
8.030526394E0,5.620869994E-1,-1.150377035E0,9.686200321E-2,1.284013772E0
8.035539092E0,5.826119781E-1,-1.169399023E0,2.187999897E-3,1.306497447E0
8.040552015E0,6.033719778E-1,-1.215692997E0,-7.886099815E-2,1.359480145E0
8.045564933E0,5.834900141E-1,-1.275413990E0,-1.599529982E-1,1.411639616E0
8.050577779E0,6.187899709E-1,-1.307510972E0,-2.002869993E-1,1.460342717E0
8.055590712E0,6.684430242E-1,-1.298199058E0,-2.543759942E-1,1.482175434E0
8.060603635E0,7.458620071E-1,-1.329184055E0,-2.949729860E-1,1.552433396E0
8.065616327E0,7.821649909E-1,-1.386855960E0,-2.811740041E-1,1.616851987E0
8.070629265E0,7.638710141E-1,-1.457772970E0,-2.129520029E-1,1.659502791E0
8.075642188E0,7.587839961E-1,-1.487468004E0,-1.856340021E-1,1.680111365E0
8.080655097E0,7.664520144E-1,-1.530864000E0,-1.854919940E-1,1.722033843E0
8.085667943E0,7.316949964E-1,-1.615546942E0,-1.443269998E-1,1.779381851E0
8.090680635E0,7.639619708E-1,-1.714383006E0,-1.030030027E-1,1.879722480E0
8.095693558E0,8.498579860E-1,-1.759210944E0,-1.568839997E-1,1.960024064E0
8.100706491E0,9.348469973E-1,-1.790843964E0,-1.970169991E-1,2.029747942E0
8.105719414E0,1.019104004E0,-1.822661042E0,-2.098370045E-1,2.098737195E0
8.110732261E0,1.062476039E0,-1.881860018E0,-2.226260006E-1,2.172513474E0
8.115744938E0,1.051731944E0,-1.913776994E0,-2.490559965E-1,2.197887930E0
8.120757861E0,1.055170059E0,-1.931962013E0,-2.891489863E-1,2.220240575E0
8.125770707E0,1.031952977E0,-1.963505983E0,-2.748360038E-1,2.235132551E0
8.130783688E0,9.961590171E-1,-1.940243959E0,-2.742489874E-1,2.198201974E0
8.135796534E0,9.338200092E-1,-1.957450986E0,-3.282470107E-1,2.193485872E0
8.140809559E0,8.309770226E-1,-1.974007964E0,-3.551459908E-1,2.171027160E0
8.145822406E0,7.417050004E-1,-2.003401995E0,-3.685779870E-1,2.167855067E0
8.150835338E0,6.659110188E-1,-2.045628071E0,-3.685390055E-1,2.182625183E0
8.155848030E0,5.899019837E-1,-2.073501110E0,-3.413949907E-1,2.182645584E0
